participant,block,trial,practice,condition,FPType,conFPDur,extFixDur,actionTrigLatency,FP,orientation,Acc,responseGiven,response,RT,preRespGiven,preResp,preTime,ITI,countBalance,handedness,oneBackFP
1,0,0,no,action,constant,short,,1.1416361331939695,1.0,right,1,1,8.0,0.8659350872039795,0,,,0.26,1,right,
1,0,1,no,action,constant,short,,0.8980660438537598,1.0,right,1,1,8.0,0.6454908847808838,0,,,0.32,1,right,1.0
1,0,2,no,action,constant,short,,0.749351978302002,1.0,left,1,1,7.0,0.7188811302185059,0,,,0.48,1,right,1.0
1,0,3,no,action,constant,short,,0.7868359088897705,1.0,left,1,1,7.0,0.536247968673706,0,,,0.47,1,right,1.0
1,0,4,no,action,constant,short,,1.7297439575195312,1.0,left,1,1,7.0,0.58036208152771,0,,,0.17,1,right,1.0
1,0,5,no,action,constant,short,,1.3142919540405271,1.0,right,1,1,8.0,0.5589110851287842,0,,,0.5,1,right,1.0
1,0,6,no,action,constant,short,,0.866581916809082,1.0,left,1,1,7.0,0.4263019561767578,0,,,0.39,1,right,1.0
1,0,7,no,action,constant,short,,0.7779738903045654,1.0,left,1,1,7.0,0.4275820255279541,0,,,0.4,1,right,1.0
1,0,8,no,action,constant,short,,0.761491060256958,1.0,left,1,1,7.0,0.4074230194091797,0,,,0.16,1,right,1.0
1,0,9,no,action,constant,short,,0.611234188079834,1.0,right,1,1,8.0,0.4525160789489746,0,,,0.78,1,right,1.0
1,0,10,no,action,constant,short,,0.5420408248901367,1.0,left,1,1,7.0,0.5337009429931641,0,,,0.19,1,right,1.0
1,0,11,no,action,constant,short,,0.6136360168457031,1.0,left,1,1,7.0,0.4234988689422607,0,,,0.49,1,right,1.0
1,0,12,no,action,constant,short,,0.5311851501464844,1.0,left,1,1,7.0,0.4250960350036621,0,,,0.34,1,right,1.0
1,0,13,no,action,constant,short,,0.432905912399292,1.0,right,1,1,8.0,0.4818391799926758,0,,,0.32,1,right,1.0
1,0,14,no,action,constant,short,,0.4737257957458496,1.0,left,1,1,7.0,0.4984989166259765,0,,,0.7,1,right,1.0
1,0,15,no,action,constant,short,,0.3957960605621338,1.0,right,1,1,8.0,0.5149128437042236,0,,,0.21,1,right,1.0
1,0,16,no,action,constant,short,,0.6124999523162842,1.0,left,1,1,7.0,0.3598001003265381,0,,,0.34,1,right,1.0
1,0,17,no,action,constant,short,,0.5857291221618652,1.0,left,1,1,7.0,0.4287219047546386,0,,,0.2,1,right,1.0
1,0,18,no,action,constant,short,,0.5948119163513184,1.0,left,1,1,7.0,0.3808820247650146,0,,,0.26,1,right,1.0
1,0,19,no,action,constant,short,,0.6988880634307861,1.0,right,1,1,8.0,0.362746000289917,0,,,0.18,1,right,1.0
1,0,20,no,action,constant,short,,0.5388801097869873,1.0,right,1,1,8.0,0.3818221092224121,0,,,0.27,1,right,1.0
1,0,21,no,action,constant,short,,0.4917988777160644,1.0,left,1,1,7.0,0.3615190982818603,0,,,0.3,1,right,1.0
1,0,22,no,action,constant,short,,0.4593598842620849,1.0,left,1,1,7.0,0.4111838340759277,0,,,0.17,1,right,1.0
1,0,23,no,action,constant,short,,0.5193860530853271,1.0,right,1,1,8.0,0.3558769226074219,0,,,0.18,1,right,1.0
1,0,24,no,action,constant,short,,0.3975470066070556,1.0,right,1,1,8.0,0.3927431106567383,0,,,0.16,1,right,1.0
1,0,25,no,action,constant,short,,0.446674108505249,1.0,right,1,1,8.0,0.4081850051879883,0,,,0.17,1,right,1.0
1,0,26,no,action,constant,short,,0.4544479846954345,1.0,left,1,1,7.0,0.3173549175262451,0,,,0.26,1,right,1.0
1,0,27,no,action,constant,short,,0.461104154586792,1.0,left,1,1,7.0,0.5389020442962646,0,,,0.17,1,right,1.0
1,0,28,no,action,constant,short,,0.4087488651275635,1.0,right,1,1,8.0,0.4315600395202636,0,,,0.2,1,right,1.0
1,0,29,no,action,constant,short,,0.5278408527374268,1.0,right,1,1,8.0,0.4166669845581054,0,,,0.37,1,right,1.0
1,0,30,no,action,constant,short,,0.4565529823303222,1.0,left,1,1,7.0,0.4179019927978515,0,,,0.19,1,right,1.0
1,0,31,no,action,constant,short,,0.7039201259613037,1.0,right,1,1,8.0,0.4382448196411133,0,,,0.18,1,right,1.0
1,0,32,no,action,constant,short,,0.4302399158477783,1.0,right,1,1,8.0,0.4099109172821045,0,,,0.76,1,right,1.0
1,0,33,no,action,constant,short,,0.54917311668396,1.0,right,1,1,8.0,0.4696049690246582,0,,,0.39,1,right,1.0
1,0,34,no,action,constant,short,,0.4692509174346924,1.0,left,1,1,7.0,0.3691210746765136,0,,,0.16,1,right,1.0
1,0,35,no,action,constant,short,,0.4133200645446777,1.0,left,1,1,7.0,0.3301310539245605,0,,,0.25,1,right,1.0
1,0,36,no,action,constant,short,,0.3999278545379638,1.0,right,1,1,8.0,0.4641249179840088,0,,,0.4,1,right,1.0
1,0,37,no,action,constant,short,,0.425649881362915,1.0,right,1,1,8.0,0.4689719676971435,0,,,0.28,1,right,1.0
1,0,38,no,action,constant,short,,0.2668530941009521,1.0,right,1,1,8.0,0.4014480113983154,0,,,0.26,1,right,1.0
1,0,39,no,action,constant,short,,0.4055900573730469,1.0,right,1,1,8.0,0.3607919216156006,0,,,0.21,1,right,1.0
1,0,40,no,action,constant,short,,0.4309010505676269,1.0,right,1,1,8.0,0.329035997390747,0,,,0.71,1,right,1.0
1,0,41,no,action,constant,short,,0.4505360126495361,1.0,left,1,1,7.0,0.3349809646606445,0,,,0.23,1,right,1.0
1,0,42,no,action,constant,short,,0.4108490943908691,1.0,right,1,1,8.0,0.3371109962463379,0,,,0.24,1,right,1.0
1,0,43,no,action,constant,short,,0.4350159168243408,1.0,right,1,1,8.0,0.436176061630249,0,,,0.39,1,right,1.0
1,0,44,no,action,constant,short,,0.4319219589233398,1.0,right,1,1,8.0,0.3996589183807373,0,,,0.59,1,right,1.0
1,0,45,no,action,constant,short,,0.4151690006256103,1.0,right,1,1,8.0,0.3936719894409179,0,,,0.19,1,right,1.0
1,0,46,no,action,constant,short,,0.4737269878387451,1.0,left,1,1,7.0,0.3471689224243164,0,,,0.28,1,right,1.0
1,0,47,no,action,constant,short,,0.3112611770629883,1.0,left,1,1,7.0,0.3815531730651855,0,,,0.21,1,right,1.0
1,0,48,no,action,constant,short,,0.4393279552459717,1.0,right,1,1,8.0,0.4053518772125244,0,,,0.36,1,right,1.0
1,0,49,no,action,constant,short,,0.4233579635620117,1.0,right,1,1,8.0,0.4002020359039306,0,,,0.25,1,right,1.0
1,0,50,no,action,constant,short,,0.3860318660736084,1.0,right,1,1,8.0,0.4568860530853271,0,,,0.17,1,right,1.0
1,0,51,no,action,constant,short,,0.5767929553985596,1.0,left,1,1,7.0,0.3869960308074951,0,,,0.32,1,right,1.0
1,0,52,no,action,constant,short,,0.4688730239868164,1.0,left,1,1,7.0,0.3714861869812011,0,,,0.77,1,right,1.0
1,0,53,no,action,constant,short,,0.4907081127166748,1.0,left,1,1,7.0,0.3853318691253662,0,,,0.19,1,right,1.0
1,0,54,no,action,constant,short,,0.5151288509368896,1.0,left,1,1,7.0,0.391402006149292,0,,,0.23,1,right,1.0
1,0,55,no,action,constant,short,,0.5030720233917236,1.0,left,1,1,7.0,0.2677550315856933,0,,,0.4,1,right,1.0
1,1,0,no,action,variable,,,1.8428959846496584,1.0,right,1,1,8.0,0.4080801010131836,0,,,0.54,1,right,
1,1,1,no,action,variable,,,0.4215188026428222,2.8,left,1,1,7.0,0.5114808082580566,0,,,0.28,1,right,1.0
1,1,2,no,action,variable,,,0.5313889980316162,1.0,right,1,1,8.0,0.5113081932067871,0,,,0.25,1,right,2.8
1,1,3,no,action,variable,,,0.5533578395843506,2.8,right,1,1,8.0,0.7430598735809326,0,,,0.24,1,right,1.0
1,1,4,no,action,variable,,,0.701225996017456,1.0,left,1,1,7.0,0.3853750228881836,0,,,0.22,1,right,2.8
1,1,5,no,action,variable,,,0.4533751010894775,2.8,left,1,1,7.0,0.4076361656188965,0,,,0.46,1,right,1.0
1,1,6,no,action,variable,,,0.4044170379638672,2.8,right,1,1,8.0,0.4997320175170898,0,,,0.32,1,right,2.8
1,1,7,no,action,variable,,,0.4157819747924804,1.0,left,1,1,7.0,0.5345759391784668,0,,,0.33,1,right,2.8
1,1,8,no,action,variable,,,0.5163290500640869,2.8,right,1,1,8.0,0.4550979137420654,0,,,0.35,1,right,1.0
1,1,9,no,action,variable,,,0.570828914642334,1.0,left,1,1,7.0,0.3761520385742187,0,,,0.27,1,right,2.8
1,1,10,no,action,variable,,,0.6020798683166504,1.0,right,1,1,8.0,0.4357140064239502,0,,,0.35,1,right,1.0
1,1,11,no,action,variable,,,0.6055130958557129,2.8,left,1,1,7.0,0.5237851142883301,0,,,0.48,1,right,1.0
1,1,12,no,action,variable,,,0.4451990127563476,1.0,left,1,1,7.0,0.8004469871520996,0,,,0.73,1,right,2.8
1,1,13,no,action,variable,,,0.5199379920959473,1.0,right,1,1,8.0,0.436633825302124,0,,,0.46,1,right,1.0
1,1,14,no,action,variable,,,0.3664271831512451,2.8,left,1,1,7.0,0.5055038928985596,0,,,0.37,1,right,1.0
1,1,15,no,action,variable,,,0.4093539714813232,2.8,left,1,1,7.0,0.4562051296234131,0,,,0.21,1,right,2.8
1,1,16,no,action,variable,,,0.4321260452270508,2.8,right,1,1,8.0,0.8306968212127686,0,,,0.26,1,right,2.8
1,1,17,no,action,variable,,,0.4667749404907226,1.0,right,1,1,8.0,0.5377299785614014,0,,,0.51,1,right,2.8
1,1,18,no,action,variable,,,0.4371891021728515,1.0,right,1,1,8.0,0.5078160762786865,0,,,0.45,1,right,1.0
1,1,19,no,action,variable,,,0.4253890514373779,2.8,right,1,1,8.0,0.3926270008087158,0,,,0.39,1,right,1.0
1,1,20,no,action,variable,,,0.4363059997558594,2.8,right,1,1,8.0,0.4398379325866699,0,,,0.24,1,right,2.8
1,1,21,no,action,variable,,,0.521759033203125,2.8,left,1,1,7.0,0.4752960205078125,0,,,0.39,1,right,2.8
1,1,22,no,action,variable,,,0.5210859775543213,2.8,left,1,1,7.0,0.5471141338348389,0,,,0.16,1,right,2.8
1,1,23,no,action,variable,,,0.631324052810669,2.8,left,1,1,7.0,0.5052530765533447,0,,,0.19,1,right,2.8
1,1,24,no,action,variable,,,0.5232279300689697,2.8,right,1,1,8.0,0.5231149196624756,0,,,0.32,1,right,2.8
1,1,25,no,action,variable,,,0.4150149822235107,2.8,left,1,1,7.0,0.5217421054840088,0,,,0.17,1,right,2.8
1,1,26,no,action,variable,,,0.3456571102142334,1.0,left,1,1,7.0,0.4049010276794433,0,,,0.71,1,right,2.8
1,1,27,no,action,variable,,,0.440364122390747,1.0,right,1,1,8.0,0.4190740585327148,0,,,0.61,1,right,1.0
1,1,28,no,action,variable,,,0.472787857055664,2.8,right,1,1,8.0,0.6137940883636475,0,,,0.68,1,right,1.0
1,1,29,no,action,variable,,,0.4853341579437256,2.8,left,1,1,7.0,0.4588270187377929,0,,,0.22,1,right,2.8
1,1,30,no,action,variable,,,1.1188981533050537,1.0,right,1,1,8.0,0.455441951751709,0,,,0.62,1,right,2.8
1,1,31,no,action,variable,,,0.4570209980010986,1.0,right,1,1,8.0,0.4104928970336914,0,,,0.25,1,right,1.0
1,1,32,no,action,variable,,,0.550544023513794,1.0,right,1,1,8.0,0.3403289318084717,0,,,0.18,1,right,1.0
1,1,33,no,action,variable,,,0.4044740200042724,1.0,left,1,1,7.0,0.345240831375122,0,,,0.17,1,right,1.0
1,1,34,no,action,variable,,,0.4251589775085449,1.0,left,1,1,7.0,0.3412489891052246,0,,,0.53,1,right,1.0
1,1,35,no,action,variable,,,0.5070559978485107,1.0,right,1,1,8.0,0.4458959102630615,0,,,0.6,1,right,1.0
1,1,36,no,action,variable,,,0.4096391201019287,1.0,right,1,1,8.0,0.5017828941345215,0,,,0.18,1,right,1.0
1,1,37,no,action,variable,,,0.591965913772583,2.8,left,1,1,7.0,1.275238037109375,0,,,0.31,1,right,1.0
1,1,38,no,action,variable,,,0.5328350067138672,1.0,left,1,1,7.0,0.4574768543243408,0,,,0.48,1,right,2.8
1,1,39,no,action,variable,,,0.3972270488739013,2.8,right,1,1,8.0,0.4922428131103515,0,,,0.21,1,right,1.0
1,1,40,no,action,variable,,,0.4764111042022705,2.8,left,1,1,7.0,0.4731090068817138,0,,,0.22,1,right,2.8
1,1,41,no,action,variable,,,0.5350551605224609,2.8,right,1,1,8.0,0.3490378856658935,0,,,0.26,1,right,2.8
1,1,42,no,action,variable,,,0.4911839962005615,2.8,left,1,1,7.0,0.513253927230835,0,,,0.34,1,right,2.8
1,1,43,no,action,variable,,,0.8647241592407227,1.0,right,1,1,8.0,0.4429099559783935,0,,,0.22,1,right,2.8
1,1,44,no,action,variable,,,0.7787559032440186,2.8,left,1,1,7.0,0.4131960868835449,0,,,0.3,1,right,1.0
1,1,45,no,action,variable,,,0.6347858905792236,2.8,right,1,1,8.0,0.3839058876037597,0,,,0.41,1,right,2.8
1,1,46,no,action,variable,,,0.6233530044555664,1.0,right,1,1,8.0,0.3983278274536133,0,,,0.18,1,right,2.8
1,1,47,no,action,variable,,,0.7521951198577881,1.0,left,1,1,7.0,0.4052379131317138,0,,,0.18,1,right,1.0
1,1,48,no,action,variable,,,0.4811170101165771,1.0,right,1,1,8.0,0.3626680374145508,0,,,0.36,1,right,1.0
1,1,49,no,action,variable,,,0.5413801670074463,2.8,left,1,1,7.0,0.3786711692810058,0,,,0.26,1,right,1.0
1,1,50,no,action,variable,,,0.5367951393127441,2.8,right,1,1,8.0,0.3810231685638428,0,,,0.18,1,right,2.8
1,1,51,no,action,variable,,,0.6269750595092773,1.0,left,1,1,7.0,0.4229300022125244,0,,,0.23,1,right,2.8
1,1,52,no,action,variable,,,0.7226181030273438,1.0,left,1,1,7.0,0.3729779720306396,0,,,0.17,1,right,1.0
1,1,53,no,action,variable,,,0.6228160858154297,1.0,left,1,1,7.0,0.3692131042480469,0,,,0.38,1,right,1.0
1,1,54,no,action,variable,,,0.5808210372924805,2.8,left,1,1,7.0,0.4448041915893554,0,,,0.55,1,right,1.0
1,1,55,no,action,variable,,,0.4842970371246338,1.0,right,1,1,8.0,0.503607988357544,0,,,0.55,1,right,2.8
1,2,0,no,action,constant,long,,0.8567590713500977,2.8,left,1,1,7.0,0.4852049350738525,0,,,0.49,1,right,
1,2,1,no,action,constant,long,,0.4948198795318603,2.8,left,1,1,7.0,0.4275999069213867,0,,,0.32,1,right,2.8
1,2,2,no,action,constant,long,,0.4793450832366943,2.8,right,1,1,8.0,0.483821153640747,0,,,0.25,1,right,2.8
1,2,3,no,action,constant,long,,0.5254659652709961,2.8,left,1,1,7.0,0.4087438583374023,0,,,0.21,1,right,2.8
1,2,4,no,action,constant,long,,0.5625278949737549,2.8,right,1,1,8.0,0.4419910907745361,0,,,0.41,1,right,2.8
1,2,5,no,action,constant,long,,0.4735569953918457,2.8,right,1,1,8.0,0.4945051670074463,0,,,0.29,1,right,2.8
1,2,6,no,action,constant,long,,0.5284509658813477,2.8,left,1,1,7.0,0.3818120956420898,0,,,0.31,1,right,2.8
1,2,7,no,action,constant,long,,0.6295788288116455,2.8,right,1,1,8.0,0.4402210712432861,0,,,0.61,1,right,2.8
1,2,8,no,action,constant,long,,0.577394962310791,2.8,right,1,1,8.0,0.4306240081787109,0,,,0.39,1,right,2.8
1,2,9,no,action,constant,long,,0.4604971408843994,2.8,right,1,1,8.0,0.4067420959472656,0,,,0.32,1,right,2.8
1,2,10,no,action,constant,long,,0.584446907043457,2.8,right,1,1,8.0,0.3866770267486572,0,,,0.32,1,right,2.8
1,2,11,no,action,constant,long,,0.7104852199554443,2.8,left,1,1,7.0,0.3854429721832275,0,,,0.18,1,right,2.8
1,2,12,no,action,constant,long,,0.4973330497741699,2.8,left,1,1,7.0,0.5344328880310059,0,,,0.27,1,right,2.8
1,2,13,no,action,constant,long,,0.5805320739746094,2.8,right,1,1,8.0,0.4384369850158691,0,,,0.33,1,right,2.8
1,2,14,no,action,constant,long,,0.5281920433044434,2.8,right,1,1,8.0,0.3781180381774902,0,,,0.28,1,right,2.8
1,2,15,no,action,constant,long,,0.5978989601135254,2.8,left,1,1,7.0,0.4532270431518554,0,,,0.52,1,right,2.8
1,2,16,no,action,constant,long,,0.6131410598754883,2.8,left,1,1,7.0,0.4619169235229492,0,,,0.42,1,right,2.8
1,2,17,no,action,constant,long,,0.6135098934173584,2.8,left,1,1,7.0,0.4186079502105713,0,,,0.4,1,right,2.8
1,2,18,no,action,constant,long,,0.6624259948730469,2.8,left,1,1,7.0,0.532221794128418,0,,,0.25,1,right,2.8
1,2,19,no,action,constant,long,,0.4919459819793701,2.8,left,1,1,7.0,0.4085619449615478,0,,,0.71,1,right,2.8
1,2,20,no,action,constant,long,,0.4857790470123291,2.8,right,1,1,8.0,0.3927240371704101,0,,,0.17,1,right,2.8
1,2,21,no,action,constant,long,,0.6646411418914795,2.8,left,1,1,7.0,0.3915448188781738,0,,,0.28,1,right,2.8
1,2,22,no,action,constant,long,,0.689478874206543,2.8,right,1,1,8.0,0.398820161819458,0,,,0.2,1,right,2.8
1,2,23,no,action,constant,long,,0.6247251033782959,2.8,left,1,1,7.0,0.455963134765625,0,,,0.22,1,right,2.8
1,2,24,no,action,constant,long,,0.70806884765625,2.8,right,1,1,8.0,0.3288378715515136,0,,,0.18,1,right,2.8
1,2,25,no,action,constant,long,,0.4688048362731933,2.8,left,1,1,7.0,0.5947661399841309,0,,,0.64,1,right,2.8
1,2,26,no,action,constant,long,,0.6185250282287598,2.8,right,1,1,8.0,0.414417028427124,0,,,0.26,1,right,2.8
1,2,27,no,action,constant,long,,0.7746901512145996,2.8,left,1,1,7.0,0.397317886352539,0,,,0.38,1,right,2.8
1,2,28,no,action,constant,long,,0.6451330184936523,2.8,left,1,1,7.0,0.5103230476379395,0,,,0.38,1,right,2.8
1,2,29,no,action,constant,long,,0.7880270481109619,2.8,left,1,1,7.0,0.4856019020080566,0,,,0.17,1,right,2.8
1,2,30,no,action,constant,long,,1.5297319889068604,2.8,left,1,1,7.0,0.523421049118042,0,,,0.19,1,right,2.8
1,2,31,no,action,constant,long,,0.819472074508667,2.8,left,1,1,7.0,0.4712851047515869,0,,,0.29,1,right,2.8
1,2,32,no,action,constant,long,,0.7091770172119141,2.8,left,1,1,7.0,0.4331741333007812,0,,,0.28,1,right,2.8
1,2,33,no,action,constant,long,,0.4750750064849853,2.8,left,1,1,7.0,0.7012310028076172,0,,,0.27,1,right,2.8
1,2,34,no,action,constant,long,,0.599168062210083,2.8,right,1,1,8.0,0.7783629894256592,0,,,0.33,1,right,2.8
1,2,35,no,action,constant,long,,0.4520559310913086,2.8,right,1,1,8.0,0.5872869491577148,0,,,0.36,1,right,2.8
1,2,36,no,action,constant,long,,0.5527420043945312,2.8,right,1,1,8.0,0.5228619575500488,0,,,0.34,1,right,2.8
1,2,37,no,action,constant,long,,0.4607710838317871,2.8,right,1,1,8.0,0.3928761482238769,0,,,0.31,1,right,2.8
1,2,38,no,action,constant,long,,0.6825859546661377,2.8,right,1,1,8.0,0.4992759227752685,0,,,0.16,1,right,2.8
1,2,39,no,action,constant,long,,0.4710509777069092,2.8,right,1,1,8.0,0.445930004119873,0,,,0.65,1,right,2.8
1,2,40,no,action,constant,long,,0.5373599529266357,2.8,right,1,1,8.0,0.4384129047393799,0,,,0.45,1,right,2.8
1,2,41,no,action,constant,long,,0.5501132011413574,2.8,left,1,1,7.0,0.424670934677124,0,,,0.47,1,right,2.8
1,2,42,no,action,constant,long,,0.4981629848480224,2.8,left,1,1,7.0,0.4179940223693847,0,,,0.26,1,right,2.8
1,2,43,no,action,constant,long,,0.4817738533020019,2.8,left,1,1,7.0,0.3579969406127929,0,,,0.31,1,right,2.8
1,2,44,no,action,constant,long,,0.4859671592712402,2.8,right,1,1,8.0,0.6843991279602051,0,,,0.61,1,right,2.8
1,2,45,no,action,constant,long,,0.4222378730773926,2.8,right,1,1,8.0,0.4691338539123535,0,,,0.42,1,right,2.8
1,2,46,no,action,constant,long,,0.7630279064178467,2.8,right,0,1,7.0,0.4137458801269531,0,,,0.58,1,right,2.8
1,2,47,no,action,constant,long,,1.1873958110809326,2.8,right,1,1,8.0,0.5112991333007812,0,,,0.57,1,right,2.8
1,2,48,no,action,constant,long,,0.9988641738891602,2.8,left,1,1,7.0,0.4607210159301758,0,,,0.27,1,right,2.8
1,2,49,no,action,constant,long,,0.7226691246032715,2.8,left,1,1,7.0,0.3928918838500976,0,,,0.36,1,right,2.8
1,2,50,no,action,constant,long,,0.482651948928833,2.8,right,1,1,8.0,0.5674400329589844,0,,,0.51,1,right,2.8
1,2,51,no,action,constant,long,,0.4531340599060058,2.8,left,1,1,7.0,0.6870059967041016,0,,,0.53,1,right,2.8
1,2,52,no,action,constant,long,,0.6063871383666992,2.8,right,1,1,8.0,0.3737428188323974,0,,,0.18,1,right,2.8
1,2,53,no,action,constant,long,,0.635551929473877,2.8,left,1,1,7.0,0.5310351848602295,0,,,0.29,1,right,2.8
1,2,54,no,action,constant,long,,0.7910418510437012,2.8,right,1,1,8.0,0.4676718711853027,0,,,0.23,1,right,2.8
1,2,55,no,action,constant,long,,0.6697139739990234,2.8,right,1,1,8.0,0.5997729301452637,0,,,0.29,1,right,2.8
1,3,0,no,action,variable,,,1.5232021808624268,2.8,left,1,1,7.0,0.4910500049591064,0,,,0.21,1,right,
1,3,1,no,action,variable,,,0.5511817932128906,1.0,left,1,1,7.0,0.6184549331665039,0,,,0.33,1,right,2.8
1,3,2,no,action,variable,,,0.5124239921569824,2.8,right,1,1,8.0,0.4268429279327392,0,,,0.59,1,right,1.0
1,3,3,no,action,variable,,,0.5287091732025146,1.0,left,1,1,7.0,0.6183950901031494,0,,,0.24,1,right,2.8
1,3,4,no,action,variable,,,0.5904529094696045,2.8,right,1,1,8.0,0.5773019790649414,0,,,0.21,1,right,1.0
1,3,5,no,action,variable,,,0.6551330089569092,2.8,left,1,1,7.0,0.6545870304107666,0,,,0.27,1,right,2.8
1,3,6,no,action,variable,,,0.4865710735321045,1.0,left,1,1,7.0,1.0144431591033936,0,,,0.27,1,right,2.8
1,3,7,no,action,variable,,,0.5383999347686768,2.8,left,1,1,7.0,0.511821985244751,0,,,0.22,1,right,1.0
1,3,8,no,action,variable,,,0.4280738830566406,2.8,left,1,1,7.0,0.4919970035552978,0,,,0.79,1,right,2.8
1,3,9,no,action,variable,,,0.5095291137695312,2.8,right,1,1,8.0,0.3937280178070068,0,,,0.16,1,right,2.8
1,3,10,no,action,variable,,,0.5160009860992432,1.0,left,1,1,7.0,0.5990350246429443,0,,,0.2,1,right,2.8
1,3,11,no,action,variable,,,0.4571239948272705,1.0,left,1,1,7.0,0.4904749393463135,0,,,0.36,1,right,1.0
1,3,12,no,action,variable,,,0.4283699989318847,2.8,right,1,1,8.0,0.4452250003814697,0,,,0.33,1,right,1.0
1,3,13,no,action,variable,,,0.4711308479309082,2.8,right,1,1,8.0,0.4912061691284179,0,,,0.53,1,right,2.8
1,3,14,no,action,variable,,,0.3930048942565918,2.8,left,1,1,7.0,0.4923410415649414,0,,,0.55,1,right,2.8
1,3,15,no,action,variable,,,0.4840209484100342,2.8,right,1,1,8.0,0.4670679569244385,0,,,0.18,1,right,2.8
1,3,16,no,action,variable,,,0.4108889102935791,2.8,right,1,1,8.0,0.5631940364837646,0,,,0.34,1,right,2.8
1,3,17,no,action,variable,,,0.8009810447692871,2.8,right,1,1,8.0,0.6055269241333008,0,,,0.56,1,right,2.8
1,3,18,no,action,variable,,,0.7312889099121094,1.0,right,1,1,8.0,0.5300450325012207,0,,,0.26,1,right,2.8
1,3,19,no,action,variable,,,0.5398960113525391,2.8,right,1,1,8.0,0.413874864578247,0,,,0.3,1,right,1.0
1,3,20,no,action,variable,,,0.6659271717071533,2.8,right,1,1,8.0,0.4392969608306885,0,,,0.32,1,right,2.8
1,3,21,no,action,variable,,,0.707097053527832,2.8,left,1,1,7.0,0.5681791305541992,0,,,0.42,1,right,2.8
1,3,22,no,action,variable,,,0.5739479064941406,2.8,left,1,1,7.0,0.5164840221405029,0,,,0.25,1,right,2.8
1,3,23,no,action,variable,,,0.5725538730621338,2.8,left,1,1,7.0,0.5415139198303223,0,,,0.27,1,right,2.8
1,3,24,no,action,variable,,,0.6914899349212646,1.0,left,1,1,7.0,0.4651069641113281,0,,,0.31,1,right,2.8
1,3,25,no,action,variable,,,0.5030300617218018,1.0,right,1,1,8.0,0.4850649833679199,0,,,0.29,1,right,1.0
1,3,26,no,action,variable,,,0.5048630237579346,1.0,left,1,1,7.0,0.7193801403045654,0,,,0.65,1,right,1.0
1,3,27,no,action,variable,,,0.5011398792266846,2.8,left,1,1,7.0,0.4651839733123779,0,,,0.29,1,right,1.0
1,3,28,no,action,variable,,,0.693152904510498,2.8,right,1,1,8.0,0.4261670112609863,0,,,0.43,1,right,2.8
1,3,29,no,action,variable,,,0.4637918472290039,2.8,right,1,1,8.0,0.4804439544677734,0,,,0.63,1,right,2.8
1,3,30,no,action,variable,,,0.6220300197601318,1.0,right,1,1,8.0,0.6705260276794434,0,,,0.38,1,right,2.8
1,3,31,no,action,variable,,,0.5503809452056885,1.0,right,1,1,8.0,0.6475169658660889,0,,,0.53,1,right,1.0
1,3,32,no,action,variable,,,0.9871959686279296,1.0,left,1,1,7.0,0.5586049556732178,0,,,0.21,1,right,1.0
1,3,33,no,action,variable,,,0.71846604347229,2.8,right,1,1,8.0,0.3594791889190674,0,,,0.56,1,right,1.0
1,3,34,no,action,variable,,,0.5895400047302246,1.0,right,1,1,8.0,0.4178380966186523,0,,,0.77,1,right,2.8
1,3,35,no,action,variable,,,0.5429489612579346,1.0,left,1,1,7.0,0.5192091464996338,0,,,0.17,1,right,1.0
1,3,36,no,action,variable,,,0.5614089965820312,1.0,right,1,1,8.0,0.5658881664276123,0,,,0.31,1,right,1.0
1,3,37,no,action,variable,,,0.4257490634918213,2.8,right,1,1,8.0,0.3585929870605469,0,,,0.16,1,right,1.0
1,3,38,no,action,variable,,,0.4646217823028564,1.0,right,1,1,8.0,0.4557909965515136,0,,,0.23,1,right,2.8
1,3,39,no,action,variable,,,0.4696779251098633,1.0,right,1,1,8.0,0.3976190090179443,0,,,0.45,1,right,1.0
1,3,40,no,action,variable,,,0.4492650032043457,2.8,right,1,1,8.0,0.4215929508209228,0,,,0.22,1,right,1.0
1,3,41,no,action,variable,,,0.4334070682525635,1.0,left,1,1,7.0,0.4996809959411621,0,,,0.51,1,right,2.8
1,3,42,no,action,variable,,,0.5033619403839111,1.0,right,1,1,8.0,0.4032239913940429,0,,,0.43,1,right,1.0
1,3,43,no,action,variable,,,0.4848580360412597,1.0,right,1,1,8.0,0.4446158409118652,0,,,0.29,1,right,1.0
1,3,44,no,action,variable,,,0.4724700450897217,1.0,right,1,1,8.0,0.3902430534362793,0,,,0.47,1,right,1.0
1,3,45,no,action,variable,,,0.5719280242919922,2.8,left,1,1,7.0,0.7685708999633789,0,,,0.43,1,right,1.0
1,3,46,no,action,variable,,,0.4042999744415283,2.8,left,1,1,7.0,0.5372340679168701,0,,,0.24,1,right,2.8
1,3,47,no,action,variable,,,0.5061688423156738,2.8,left,1,1,7.0,0.4377129077911377,0,,,0.31,1,right,2.8
1,3,48,no,action,variable,,,0.9993560314178468,1.0,left,1,1,7.0,0.5374948978424072,0,,,0.35,1,right,2.8
1,3,49,no,action,variable,,,0.4652750492095947,1.0,left,1,1,7.0,0.5087630748748779,0,,,0.36,1,right,1.0
1,3,50,no,action,variable,,,0.5944609642028809,1.0,left,1,1,7.0,0.480557918548584,0,,,0.28,1,right,1.0
1,3,51,no,action,variable,,,0.3884310722351074,1.0,left,1,1,7.0,0.4941191673278808,0,,,0.4,1,right,1.0
1,3,52,no,action,variable,,,0.4179141521453857,1.0,right,1,1,8.0,0.4494490623474121,0,,,0.28,1,right,1.0
1,3,53,no,action,variable,,,0.3572309017181396,1.0,left,1,1,7.0,0.5041642189025879,0,,,0.31,1,right,1.0
1,3,54,no,action,variable,,,0.4020259380340576,2.8,right,1,1,8.0,0.4538002014160156,0,,,0.24,1,right,1.0
1,3,55,no,action,variable,,,0.5675389766693115,1.0,left,1,1,7.0,0.5413169860839844,0,,,0.46,1,right,2.8
1,4,0,no,external,constant,long,1.3,,2.8,left,1,1,7.0,0.7205390930175781,0,,,0.51,1,right,
1,4,1,no,external,constant,long,1.5,,2.8,right,1,1,8.0,0.522089958190918,0,,,0.34,1,right,2.8
1,4,2,no,external,constant,long,1.3,,2.8,left,1,1,7.0,0.4044837951660156,0,,,0.17,1,right,2.8
1,4,3,no,external,constant,long,1.1,,2.8,left,1,1,7.0,0.4931468963623047,0,,,0.22,1,right,2.8
1,4,4,no,external,constant,long,1.7,,2.8,left,1,1,7.0,0.3511121273040771,0,,,0.26,1,right,2.8
1,4,5,no,external,constant,long,1.2,,2.8,left,1,1,7.0,0.3958570957183838,0,,,0.17,1,right,2.8
1,4,6,no,external,constant,long,1.5,,2.8,right,1,1,8.0,0.509850025177002,0,,,0.21,1,right,2.8
1,4,7,no,external,constant,long,1.4,,2.8,right,1,1,8.0,0.4458150863647461,0,,,0.19,1,right,2.8
1,4,8,no,external,constant,long,1.7,,2.8,left,1,1,7.0,0.4537639617919922,0,,,0.33,1,right,2.8
1,4,9,no,external,constant,long,1.6,,2.8,right,1,1,8.0,0.4504411220550537,0,,,0.56,1,right,2.8
1,4,10,no,external,constant,long,1.4,,2.8,left,0,1,8.0,0.3619139194488525,0,,,0.77,1,right,2.8
1,4,11,no,external,constant,long,1.3,,2.8,right,1,1,8.0,0.4969179630279541,0,,,0.18,1,right,2.8
1,4,12,no,external,constant,long,1.1,,2.8,left,1,1,7.0,0.5561649799346924,0,,,0.45,1,right,2.8
1,4,13,no,external,constant,long,1.6,,2.8,right,1,1,8.0,0.4478559494018554,0,,,0.26,1,right,2.8
1,4,14,no,external,constant,long,1.3,,2.8,left,1,1,7.0,0.3301618099212646,0,,,0.16,1,right,2.8
1,4,15,no,external,constant,long,1.1,,2.8,left,1,1,7.0,0.5065550804138184,0,,,0.26,1,right,2.8
1,4,16,no,external,constant,long,1.3,,2.8,right,1,1,8.0,0.5700039863586426,0,,,0.38,1,right,2.8
1,4,17,no,external,constant,long,1.6,,2.8,left,1,1,7.0,0.4903349876403808,0,,,0.3,1,right,2.8
1,4,18,no,external,constant,long,1.4,,2.8,left,1,1,7.0,0.4226770401000976,0,,,0.63,1,right,2.8
1,4,19,no,external,constant,long,1.2,,2.8,right,1,1,8.0,0.4658379554748535,0,,,0.35,1,right,2.8
1,4,20,no,external,constant,long,1.7,,2.8,right,1,1,8.0,0.5693380832672119,0,,,0.25,1,right,2.8
1,4,21,no,external,constant,long,1.1,,2.8,left,1,1,7.0,0.5112051963806152,0,,,0.25,1,right,2.8
1,4,22,no,external,constant,long,1.0,,2.8,left,1,1,7.0,0.3875670433044433,0,,,0.41,1,right,2.8
1,4,23,no,external,constant,long,1.2,,2.8,left,1,1,7.0,0.394575834274292,0,,,0.16,1,right,2.8
1,4,24,no,external,constant,long,1.2,,2.8,right,1,1,8.0,0.4281151294708252,0,,,0.54,1,right,2.8
1,4,25,no,external,constant,long,1.2,,2.8,left,1,1,7.0,0.5552258491516113,0,,,0.19,1,right,2.8
1,4,26,no,external,constant,long,1.1,,2.8,right,1,1,8.0,0.3916480541229248,0,,,0.19,1,right,2.8
1,4,27,no,external,constant,long,1.6,,2.8,right,1,1,8.0,0.4602930545806885,0,,,0.21,1,right,2.8
1,4,28,no,external,constant,long,1.6,,2.8,left,1,1,7.0,0.5099959373474121,0,,,0.3,1,right,2.8
1,4,29,no,external,constant,long,1.3,,2.8,right,1,1,8.0,0.474606990814209,0,,,0.56,1,right,2.8
1,4,30,no,external,constant,long,1.5,,2.8,left,1,1,7.0,0.5452311038970947,0,,,0.64,1,right,2.8
1,4,31,no,external,constant,long,1.0,,2.8,right,1,1,8.0,0.4568290710449219,0,,,0.16,1,right,2.8
1,4,32,no,external,constant,long,1.3,,2.8,right,1,1,8.0,0.372323989868164,0,,,0.4,1,right,2.8
1,4,33,no,external,constant,long,1.3,,2.8,left,1,1,7.0,0.3345389366149902,0,,,0.23,1,right,2.8
1,4,34,no,external,constant,long,1.7,,2.8,left,1,1,7.0,0.5891890525817871,0,,,0.25,1,right,2.8
1,4,35,no,external,constant,long,1.2,,2.8,left,1,1,7.0,0.5035068988800049,0,,,0.24,1,right,2.8
1,4,36,no,external,constant,long,1.3,,2.8,right,1,1,8.0,0.5945339202880859,0,,,0.69,1,right,2.8
1,4,37,no,external,constant,long,1.2,,2.8,right,1,1,8.0,0.7063250541687012,0,,,0.47,1,right,2.8
1,4,38,no,external,constant,long,1.5,,2.8,right,1,1,8.0,0.5065350532531738,0,,,0.2,1,right,2.8
1,4,39,no,external,constant,long,1.6,,2.8,right,1,1,8.0,0.4263648986816406,0,,,0.54,1,right,2.8
1,4,40,no,external,constant,long,1.2,,2.8,left,1,1,7.0,0.6705009937286377,0,,,0.18,1,right,2.8
1,4,41,no,external,constant,long,1.4,,2.8,right,1,1,8.0,0.3872251510620117,0,,,0.52,1,right,2.8
1,4,42,no,external,constant,long,1.2,,2.8,left,1,1,7.0,0.584453821182251,0,,,0.49,1,right,2.8
1,4,43,no,external,constant,long,1.6,,2.8,right,1,1,8.0,0.4727640151977539,0,,,0.38,1,right,2.8
1,4,44,no,external,constant,long,1.6,,2.8,right,1,1,8.0,0.4290769100189209,0,,,0.44,1,right,2.8
1,4,45,no,external,constant,long,1.0,,2.8,right,1,1,8.0,0.3948400020599365,0,,,0.33,1,right,2.8
1,4,46,no,external,constant,long,1.3,,2.8,left,1,1,7.0,0.5057699680328369,0,,,0.33,1,right,2.8
1,4,47,no,external,constant,long,1.2,,2.8,left,1,1,7.0,0.437047004699707,0,,,0.51,1,right,2.8
1,4,48,no,external,constant,long,1.5,,2.8,right,1,1,8.0,0.5826687812805176,0,,,0.32,1,right,2.8
1,4,49,no,external,constant,long,1.1,,2.8,right,1,1,8.0,0.4776680469512939,0,,,0.32,1,right,2.8
1,4,50,no,external,constant,long,1.6,,2.8,left,1,1,7.0,0.4167778491973877,0,,,0.41,1,right,2.8
1,4,51,no,external,constant,long,1.1,,2.8,right,1,1,8.0,0.4560451507568359,0,,,0.55,1,right,2.8
1,4,52,no,external,constant,long,1.4,,2.8,right,1,1,8.0,0.4227049350738525,0,,,0.33,1,right,2.8
1,4,53,no,external,constant,long,1.4,,2.8,left,1,1,7.0,0.6210451126098633,0,,,0.55,1,right,2.8
1,4,54,no,external,constant,long,1.6,,2.8,left,1,1,7.0,0.5069980621337891,0,,,0.5,1,right,2.8
1,4,55,no,external,constant,long,1.1,,2.8,right,1,1,8.0,0.4067080020904541,0,,,0.38,1,right,2.8
1,5,0,no,external,constant,short,1.7,,1.0,left,1,1,7.0,0.4294919967651367,0,,,0.55,1,right,
1,5,1,no,external,constant,short,1.5,,1.0,left,1,1,7.0,0.6154370307922363,0,,,0.17,1,right,1.0
1,5,2,no,external,constant,short,1.4,,1.0,left,1,1,7.0,0.7641828060150146,0,,,0.24,1,right,1.0
1,5,3,no,external,constant,short,1.5,,1.0,left,1,1,7.0,0.6658010482788086,0,,,0.27,1,right,1.0
1,5,4,no,external,constant,short,1.4,,1.0,left,1,1,7.0,0.4294519424438476,0,,,0.31,1,right,1.0
1,5,5,no,external,constant,short,1.4,,1.0,right,1,1,8.0,0.5129480361938477,0,,,0.49,1,right,1.0
1,5,6,no,external,constant,short,1.4,,1.0,right,1,1,8.0,0.5352721214294434,0,,,0.3,1,right,1.0
1,5,7,no,external,constant,short,1.7,,1.0,left,1,1,7.0,0.4380581378936767,0,,,0.2,1,right,1.0
1,5,8,no,external,constant,short,1.7,,1.0,right,1,1,8.0,0.6425600051879883,0,,,0.25,1,right,1.0
1,5,9,no,external,constant,short,1.2,,1.0,left,1,1,7.0,0.5778939723968506,0,,,0.77,1,right,1.0
1,5,10,no,external,constant,short,1.1,,1.0,left,1,1,7.0,0.4143521785736084,0,,,0.45,1,right,1.0
1,5,11,no,external,constant,short,1.4,,1.0,right,1,1,8.0,0.5129289627075195,0,,,0.39,1,right,1.0
1,5,12,no,external,constant,short,1.2,,1.0,left,1,1,7.0,0.7712280750274658,0,,,0.18,1,right,1.0
1,5,13,no,external,constant,short,1.6,,1.0,left,1,1,7.0,0.3728978633880615,0,,,0.2,1,right,1.0
1,5,14,no,external,constant,short,1.2,,1.0,left,1,1,7.0,0.4815669059753418,0,,,0.25,1,right,1.0
1,5,15,no,external,constant,short,1.6,,1.0,right,1,1,8.0,0.5527238845825195,0,,,0.28,1,right,1.0
1,5,16,no,external,constant,short,1.1,,1.0,right,1,1,8.0,0.4455649852752685,0,,,0.53,1,right,1.0
1,5,17,no,external,constant,short,1.7,,1.0,right,1,1,8.0,0.3683481216430664,0,,,0.21,1,right,1.0
1,5,18,no,external,constant,short,1.7,,1.0,left,1,1,7.0,0.4141659736633301,0,,,0.26,1,right,1.0
1,5,19,no,external,constant,short,1.2,,1.0,right,1,1,8.0,0.4022250175476074,0,,,0.26,1,right,1.0
1,5,20,no,external,constant,short,1.7,,1.0,left,1,1,7.0,0.4302630424499511,0,,,0.68,1,right,1.0
1,5,21,no,external,constant,short,1.6,,1.0,right,1,1,8.0,0.3950610160827636,0,,,0.25,1,right,1.0
1,5,22,no,external,constant,short,1.7,,1.0,right,1,1,8.0,0.3429548740386963,0,,,0.26,1,right,1.0
1,5,23,no,external,constant,short,1.5,,1.0,right,1,1,8.0,0.5044639110565186,0,,,0.17,1,right,1.0
1,5,24,no,external,constant,short,1.7,,1.0,left,1,1,7.0,0.5951480865478516,0,,,0.38,1,right,1.0
1,5,25,no,external,constant,short,1.2,,1.0,right,1,1,8.0,0.362468957901001,0,,,0.38,1,right,1.0
1,5,26,no,external,constant,short,1.5,,1.0,right,1,1,8.0,0.3628208637237549,0,,,0.41,1,right,1.0
1,5,27,no,external,constant,short,1.2,,1.0,right,1,1,8.0,0.3809950351715088,0,,,0.24,1,right,1.0
1,5,28,no,external,constant,short,1.5,,1.0,left,1,1,7.0,0.4456000328063965,0,,,0.28,1,right,1.0
1,5,29,no,external,constant,short,1.2,,1.0,right,1,1,8.0,0.4040710926055908,0,,,0.34,1,right,1.0
1,5,30,no,external,constant,short,1.3,,1.0,left,1,1,7.0,0.4066159725189209,0,,,0.21,1,right,1.0
1,5,31,no,external,constant,short,1.2,,1.0,right,1,1,8.0,0.3756968975067138,0,,,0.27,1,right,1.0
1,5,32,no,external,constant,short,1.1,,1.0,left,1,1,7.0,0.3515820503234863,0,,,0.65,1,right,1.0
1,5,33,no,external,constant,short,1.1,,1.0,right,1,1,8.0,0.4177031517028808,0,,,0.23,1,right,1.0
1,5,34,no,external,constant,short,1.4,,1.0,left,1,1,7.0,0.4814040660858154,0,,,0.69,1,right,1.0
1,5,35,no,external,constant,short,1.1,,1.0,left,1,1,7.0,0.589623212814331,0,,,0.39,1,right,1.0
1,5,36,no,external,constant,short,1.2,,1.0,right,1,1,8.0,0.4306309223175049,0,,,0.19,1,right,1.0
1,5,37,no,external,constant,short,1.7,,1.0,right,1,1,8.0,0.4487919807434082,0,,,0.67,1,right,1.0
1,5,38,no,external,constant,short,1.5,,1.0,right,1,1,8.0,0.4116160869598388,0,,,0.32,1,right,1.0
1,5,39,no,external,constant,short,1.7,,1.0,left,1,1,7.0,0.3874540328979492,0,,,0.21,1,right,1.0
1,5,40,no,external,constant,short,1.0,,1.0,left,1,1,7.0,0.4451718330383301,0,,,0.21,1,right,1.0
1,5,41,no,external,constant,short,1.2,,1.0,left,1,1,7.0,0.3787930011749267,0,,,0.54,1,right,1.0
1,5,42,no,external,constant,short,1.3,,1.0,right,1,1,8.0,0.448944091796875,0,,,0.41,1,right,1.0
1,5,43,no,external,constant,short,1.6,,1.0,right,1,1,8.0,0.5399470329284668,0,,,0.36,1,right,1.0
1,5,44,no,external,constant,short,1.1,,1.0,right,1,1,8.0,0.4078409671783447,0,,,0.19,1,right,1.0
1,5,45,no,external,constant,short,1.2,,1.0,left,1,1,7.0,0.5895638465881348,0,,,0.18,1,right,1.0
1,5,46,no,external,constant,short,1.2,,1.0,left,1,1,7.0,0.4096410274505615,0,,,0.52,1,right,1.0
1,5,47,no,external,constant,short,1.4,,1.0,right,1,1,8.0,0.498511791229248,0,,,0.25,1,right,1.0
1,5,48,no,external,constant,short,1.1,,1.0,left,1,1,7.0,0.335629940032959,0,,,0.21,1,right,1.0
1,5,49,no,external,constant,short,1.6,,1.0,left,1,1,7.0,0.3412361145019531,0,,,0.21,1,right,1.0
1,5,50,no,external,constant,short,1.7,,1.0,left,1,1,7.0,0.3420841693878174,0,,,0.67,1,right,1.0
1,5,51,no,external,constant,short,1.7,,1.0,right,1,1,8.0,0.4570848941802978,0,,,0.75,1,right,1.0
1,5,52,no,external,constant,short,1.2,,1.0,right,1,1,8.0,0.4127099514007568,0,,,0.27,1,right,1.0
1,5,53,no,external,constant,short,1.5,,1.0,right,1,1,8.0,0.4154181480407715,0,,,0.33,1,right,1.0
1,5,54,no,external,constant,short,1.5,,1.0,left,1,1,7.0,0.3687548637390136,0,,,0.3,1,right,1.0
1,5,55,no,external,constant,short,1.6,,1.0,right,1,1,8.0,0.316929817199707,0,,,0.41,1,right,1.0
1,6,0,no,external,variable,,1.4,,1.0,right,1,1,8.0,0.675123929977417,1,7.0,0.3832099437713623,0.25,1,right,
1,6,1,no,external,variable,,1.7,,2.8,left,1,1,7.0,0.4578511714935303,0,,,0.44,1,right,1.0
1,6,2,no,external,variable,,1.4,,2.8,left,1,1,7.0,0.7722229957580566,0,,,0.25,1,right,2.8
1,6,3,no,external,variable,,1.7,,2.8,left,1,1,7.0,0.4567091464996338,0,,,0.2,1,right,2.8
1,6,4,no,external,variable,,1.1,,1.0,right,1,1,8.0,0.4535489082336426,0,,,0.22,1,right,2.8
1,6,5,no,external,variable,,1.5,,2.8,left,1,1,7.0,0.3506009578704834,0,,,0.23,1,right,1.0
1,6,6,no,external,variable,,1.2,,2.8,left,1,1,7.0,0.7038860321044922,0,,,0.69,1,right,2.8
1,6,7,no,external,variable,,1.3,,2.8,left,1,1,7.0,0.8449110984802246,0,,,0.21,1,right,2.8
1,6,8,no,external,variable,,1.1,,2.8,left,1,1,7.0,0.4280521869659424,0,,,0.46,1,right,2.8
1,6,9,no,external,variable,,1.5,,1.0,right,1,1,8.0,0.5045740604400635,0,,,0.69,1,right,2.8
1,6,10,no,external,variable,,1.5,,2.8,right,1,1,8.0,0.5643548965454102,0,,,0.45,1,right,1.0
1,6,11,no,external,variable,,1.6,,1.0,right,1,1,8.0,0.5630428791046143,0,,,0.56,1,right,2.8
1,6,12,no,external,variable,,1.5,,2.8,right,1,1,8.0,0.5094079971313477,0,,,0.22,1,right,1.0
1,6,13,no,external,variable,,1.2,,2.8,left,1,1,7.0,0.3180179595947265,0,,,0.67,1,right,2.8
1,6,14,no,external,variable,,1.3,,1.0,left,1,1,7.0,0.4043159484863281,0,,,0.39,1,right,2.8
1,6,15,no,external,variable,,1.5,,2.8,left,1,1,7.0,0.3569400310516357,0,,,0.42,1,right,1.0
1,6,16,no,external,variable,,1.4,,1.0,right,1,1,8.0,0.5194089412689209,0,,,0.42,1,right,2.8
1,6,17,no,external,variable,,1.2,,2.8,left,1,1,7.0,0.4586551189422607,0,,,0.22,1,right,1.0
1,6,18,no,external,variable,,1.2,,2.8,right,1,1,8.0,0.6374008655548096,0,,,0.19,1,right,2.8
1,6,19,no,external,variable,,1.0,,2.8,right,1,1,8.0,0.4932811260223388,0,,,0.52,1,right,2.8
1,6,20,no,external,variable,,1.7,,1.0,right,1,1,8.0,0.4240100383758545,0,,,0.29,1,right,2.8
1,6,21,no,external,variable,,1.7,,1.0,left,1,1,7.0,0.5442409515380859,0,,,0.52,1,right,1.0
1,6,22,no,external,variable,,1.7,,2.8,right,1,1,8.0,0.4396049976348877,0,,,0.21,1,right,1.0
1,6,23,no,external,variable,,1.3,,1.0,right,1,1,8.0,0.469581127166748,0,,,0.26,1,right,2.8
1,6,24,no,external,variable,,1.6,,1.0,left,1,1,7.0,0.4553940296173095,0,,,0.37,1,right,1.0
1,6,25,no,external,variable,,1.3,,2.8,left,1,1,7.0,0.693612813949585,0,,,0.75,1,right,1.0
1,6,26,no,external,variable,,1.7,,2.8,left,1,1,7.0,0.4716238975524902,0,,,0.19,1,right,2.8
1,6,27,no,external,variable,,1.3,,2.8,left,1,1,7.0,0.8380448818206787,0,,,0.39,1,right,2.8
1,6,28,no,external,variable,,1.4,,1.0,right,1,1,8.0,0.4524118900299072,0,,,0.18,1,right,2.8
1,6,29,no,external,variable,,1.3,,1.0,right,1,1,8.0,0.3869388103485107,0,,,0.58,1,right,1.0
1,6,30,no,external,variable,,1.3,,2.8,right,1,1,8.0,0.4105911254882812,0,,,0.28,1,right,1.0
1,6,31,no,external,variable,,1.2,,2.8,left,1,1,7.0,0.3979349136352539,0,,,0.23,1,right,2.8
1,6,32,no,external,variable,,1.3,,2.8,left,1,1,7.0,0.4894158840179443,0,,,0.3,1,right,2.8
1,6,33,no,external,variable,,1.0,,2.8,right,1,1,8.0,0.3927481174468994,0,,,0.31,1,right,2.8
1,6,34,no,external,variable,,1.3,,1.0,left,1,1,7.0,0.319749116897583,0,,,0.27,1,right,2.8
1,6,35,no,external,variable,,1.6,,1.0,right,1,1,8.0,0.4510490894317627,0,,,0.43,1,right,1.0
1,6,36,no,external,variable,,1.1,,1.0,right,1,1,8.0,0.4942610263824463,0,,,0.26,1,right,1.0
1,6,37,no,external,variable,,1.3,,1.0,left,1,1,7.0,0.5377569198608398,0,,,0.25,1,right,1.0
1,6,38,no,external,variable,,1.3,,1.0,right,1,1,8.0,0.4144239425659179,0,,,0.3,1,right,1.0
1,6,39,no,external,variable,,1.7,,2.8,right,1,1,8.0,0.4159471988677978,0,,,0.52,1,right,1.0
1,6,40,no,external,variable,,1.0,,1.0,right,1,1,8.0,0.7696437835693359,0,,,0.2,1,right,2.8
1,6,41,no,external,variable,,1.1,,1.0,right,1,1,8.0,0.4779329299926758,0,,,0.48,1,right,1.0
1,6,42,no,external,variable,,1.5,,2.8,left,1,1,7.0,0.8185958862304688,0,,,0.29,1,right,1.0
1,6,43,no,external,variable,,1.6,,1.0,left,1,1,7.0,0.4966228008270263,0,,,0.26,1,right,2.8
1,6,44,no,external,variable,,1.2,,2.8,right,1,1,8.0,0.4344179630279541,0,,,0.45,1,right,1.0
1,6,45,no,external,variable,,1.2,,1.0,left,1,1,7.0,0.6190540790557861,0,,,0.26,1,right,2.8
1,6,46,no,external,variable,,1.5,,1.0,right,1,1,8.0,0.5943889617919922,0,,,0.22,1,right,1.0
1,6,47,no,external,variable,,1.5,,1.0,left,1,1,7.0,0.4580230712890625,0,,,0.26,1,right,1.0
1,6,48,no,external,variable,,1.4,,1.0,right,1,1,8.0,0.4012861251831054,0,,,0.47,1,right,1.0
1,6,49,no,external,variable,,1.4,,1.0,left,1,1,7.0,0.3898229598999023,0,,,0.43,1,right,1.0
1,6,50,no,external,variable,,1.5,,2.8,left,1,1,7.0,0.4716169834136963,0,,,0.31,1,right,1.0
1,6,51,no,external,variable,,1.3,,2.8,left,1,1,7.0,0.4732980728149414,0,,,0.39,1,right,2.8
1,6,52,no,external,variable,,1.3,,1.0,right,1,1,8.0,0.7071740627288818,0,,,0.43,1,right,2.8
1,6,53,no,external,variable,,1.4,,2.8,right,1,1,8.0,0.3940999507904053,0,,,0.35,1,right,1.0
1,6,54,no,external,variable,,1.6,,1.0,right,1,1,8.0,0.7164571285247803,0,,,0.36,1,right,2.8
1,6,55,no,external,variable,,1.2,,1.0,left,1,1,7.0,0.5765891075134277,0,,,0.37,1,right,1.0
1,7,0,no,external,variable,,1.5,,1.0,right,1,1,8.0,0.4022700786590576,0,,,0.34,1,right,
1,7,1,no,external,variable,,1.6,,2.8,right,1,1,8.0,0.5546188354492188,0,,,0.46,1,right,1.0
1,7,2,no,external,variable,,1.2,,2.8,right,1,1,8.0,0.4723739624023437,0,,,0.33,1,right,2.8
1,7,3,no,external,variable,,1.5,,2.8,left,1,1,7.0,0.7436401844024658,0,,,0.26,1,right,2.8
1,7,4,no,external,variable,,1.5,,1.0,right,1,1,8.0,0.8817551136016846,0,,,0.49,1,right,2.8
1,7,5,no,external,variable,,1.6,,2.8,right,1,1,8.0,0.4488558769226074,0,,,0.42,1,right,1.0
1,7,6,no,external,variable,,1.7,,1.0,left,1,1,7.0,0.4920430183410644,0,,,0.22,1,right,2.8
1,7,7,no,external,variable,,1.4,,2.8,right,1,1,8.0,0.551002025604248,0,,,0.19,1,right,1.0
1,7,8,no,external,variable,,1.0,,2.8,left,1,1,7.0,1.0373060703277588,0,,,0.25,1,right,2.8
1,7,9,no,external,variable,,1.5,,2.8,right,1,1,8.0,0.4874241352081299,0,,,0.64,1,right,2.8
1,7,10,no,external,variable,,1.4,,2.8,left,1,1,7.0,0.7853829860687256,0,,,0.25,1,right,2.8
1,7,11,no,external,variable,,1.2,,2.8,left,1,1,7.0,0.509735107421875,0,,,0.35,1,right,2.8
1,7,12,no,external,variable,,1.7,,2.8,right,1,1,8.0,0.4657700061798095,0,,,0.58,1,right,2.8
1,7,13,no,external,variable,,1.3,,1.0,right,1,1,8.0,0.6613099575042725,0,,,0.25,1,right,2.8
1,7,14,no,external,variable,,1.1,,2.8,right,1,1,8.0,0.3498108386993408,0,,,0.58,1,right,1.0
1,7,15,no,external,variable,,1.1,,2.8,right,1,1,8.0,0.4057540893554687,0,,,0.17,1,right,2.8
1,7,16,no,external,variable,,1.1,,2.8,left,1,1,7.0,0.3390998840332031,0,,,0.27,1,right,2.8
1,7,17,no,external,variable,,1.1,,1.0,left,1,1,7.0,0.5687501430511475,0,,,0.37,1,right,2.8
1,7,18,no,external,variable,,1.0,,1.0,right,1,1,8.0,0.4561109542846679,0,,,0.19,1,right,1.0
1,7,19,no,external,variable,,1.7,,2.8,right,1,1,8.0,0.4232962131500244,0,,,0.25,1,right,1.0
1,7,20,no,external,variable,,1.3,,2.8,right,1,1,8.0,0.5119779109954834,0,,,0.71,1,right,2.8
1,7,21,no,external,variable,,1.1,,1.0,left,1,1,7.0,0.4166820049285888,0,,,0.29,1,right,2.8
1,7,22,no,external,variable,,1.1,,2.8,left,1,1,7.0,0.5176301002502441,0,,,0.2,1,right,1.0
1,7,23,no,external,variable,,1.4,,1.0,right,1,1,8.0,0.4811029434204101,0,,,0.2,1,right,2.8
1,7,24,no,external,variable,,1.2,,1.0,left,1,1,7.0,0.3787441253662109,0,,,0.25,1,right,1.0
1,7,25,no,external,variable,,1.6,,2.8,right,1,1,8.0,0.4294259548187256,0,,,0.17,1,right,1.0
1,7,26,no,external,variable,,1.6,,1.0,right,1,1,8.0,0.5929419994354248,0,,,0.7,1,right,2.8
1,7,27,no,external,variable,,1.0,,2.8,left,1,1,7.0,0.6376278400421143,0,,,0.36,1,right,1.0
1,7,28,no,external,variable,,1.1,,2.8,left,1,1,7.0,0.4427690505981445,0,,,0.24,1,right,2.8
1,7,29,no,external,variable,,1.1,,1.0,right,1,1,8.0,0.4036140441894531,0,,,0.21,1,right,2.8
1,7,30,no,external,variable,,1.4,,1.0,left,1,1,7.0,0.4059720039367676,0,,,0.61,1,right,1.0
1,7,31,no,external,variable,,1.0,,2.8,right,1,1,8.0,0.3627622127532959,0,,,0.53,1,right,1.0
1,7,32,no,external,variable,,1.2,,2.8,right,1,1,8.0,0.45430588722229,0,,,0.2,1,right,2.8
1,7,33,no,external,variable,,1.3,,2.8,left,1,1,7.0,0.4697580337524414,0,,,0.17,1,right,2.8
1,7,34,no,external,variable,,1.3,,1.0,left,1,1,7.0,0.4629697799682617,0,,,0.39,1,right,2.8
1,7,35,no,external,variable,,1.3,,1.0,right,1,1,8.0,0.508681058883667,0,,,0.3,1,right,1.0
1,7,36,no,external,variable,,1.2,,1.0,right,1,1,8.0,0.4879708290100097,0,,,0.25,1,right,1.0
1,7,37,no,external,variable,,1.3,,1.0,left,1,1,7.0,0.4574739933013916,0,,,0.21,1,right,1.0
1,7,38,no,external,variable,,1.2,,1.0,left,1,1,7.0,0.5331940650939941,0,,,0.67,1,right,1.0
1,7,39,no,external,variable,,1.6,,1.0,left,1,1,7.0,0.4229857921600342,0,,,0.18,1,right,1.0
1,7,40,no,external,variable,,1.5,,2.8,left,1,1,7.0,0.5036220550537109,0,,,0.28,1,right,1.0
1,7,41,no,external,variable,,1.4,,1.0,left,1,1,7.0,0.3843710422515869,0,,,0.18,1,right,2.8
1,7,42,no,external,variable,,1.0,,1.0,right,1,1,8.0,0.4348001480102539,0,,,0.28,1,right,1.0
1,7,43,no,external,variable,,1.4,,1.0,right,1,1,8.0,0.3803091049194336,0,,,0.47,1,right,1.0
1,7,44,no,external,variable,,1.6,,2.8,right,1,1,8.0,0.3221118450164795,0,,,0.23,1,right,1.0
1,7,45,no,external,variable,,1.0,,1.0,right,1,1,8.0,0.4391589164733886,0,,,0.2,1,right,2.8
1,7,46,no,external,variable,,1.5,,2.8,left,1,1,7.0,0.4687371253967285,0,,,0.2,1,right,1.0
1,7,47,no,external,variable,,1.0,,1.0,right,1,1,8.0,0.4747309684753418,0,,,0.63,1,right,2.8
1,7,48,no,external,variable,,1.1,,1.0,left,1,1,7.0,0.3960750102996826,0,,,0.67,1,right,1.0
1,7,49,no,external,variable,,1.6,,2.8,left,1,1,7.0,0.3440809249877929,0,,,0.18,1,right,1.0
1,7,50,no,external,variable,,1.3,,1.0,left,1,1,7.0,0.719728946685791,0,,,0.44,1,right,2.8
1,7,51,no,external,variable,,1.4,,2.8,right,1,1,8.0,0.4929900169372558,0,,,0.47,1,right,1.0
1,7,52,no,external,variable,,1.7,,2.8,left,1,1,7.0,0.4409849643707275,0,,,0.38,1,right,2.8
1,7,53,no,external,variable,,1.1,,1.0,left,1,1,7.0,0.4064819812774658,0,,,0.2,1,right,2.8
1,7,54,no,external,variable,,1.0,,1.0,left,1,1,7.0,0.3942859172821045,0,,,0.67,1,right,1.0
1,7,55,no,external,variable,,1.5,,1.0,left,1,1,7.0,0.4313321113586426,0,,,0.18,1,right,1.0
2,0,0,no,external,constant,long,1.6,,2.8,right,1,1,8.0,0.3837590217590332,0,,,0.25,2,right,
2,0,1,no,external,constant,long,1.2,,2.8,left,1,1,7.0,0.3930180072784424,0,,,0.17,2,right,2.8
2,0,2,no,external,constant,long,1.7,,2.8,right,1,1,8.0,0.438882827758789,0,,,0.39,2,right,2.8
2,0,3,no,external,constant,long,1.5,,2.8,left,1,1,7.0,0.3626561164855957,0,,,0.67,2,right,2.8
2,0,4,no,external,constant,long,1.5,,2.8,left,1,1,7.0,0.3687059879302978,0,,,0.25,2,right,2.8
2,0,5,no,external,constant,long,1.0,,2.8,left,1,1,7.0,0.3889861106872558,0,,,0.35,2,right,2.8
2,0,6,no,external,constant,long,1.2,,2.8,left,1,1,7.0,0.2833490371704101,0,,,0.32,2,right,2.8
2,0,7,no,external,constant,long,1.6,,2.8,left,1,1,7.0,0.330104112625122,0,,,0.79,2,right,2.8
2,0,8,no,external,constant,long,1.3,,2.8,left,1,1,7.0,0.3358080387115478,0,,,0.69,2,right,2.8
2,0,9,no,external,constant,long,1.7,,2.8,right,1,1,8.0,0.5044219493865967,0,,,0.32,2,right,2.8
2,0,10,no,external,constant,long,1.4,,2.8,left,1,1,7.0,0.3236498832702636,0,,,0.21,2,right,2.8
2,0,11,no,external,constant,long,1.1,,2.8,right,1,1,8.0,0.3610260486602783,0,,,0.17,2,right,2.8
2,0,12,no,external,constant,long,1.6,,2.8,right,1,1,8.0,0.5046780109405518,0,,,0.2,2,right,2.8
2,0,13,no,external,constant,long,1.3,,2.8,right,1,1,8.0,0.4583971500396728,0,,,0.16,2,right,2.8
2,0,14,no,external,constant,long,1.2,,2.8,right,1,1,8.0,0.4430360794067383,0,,,0.24,2,right,2.8
2,0,15,no,external,constant,long,1.4,,2.8,left,1,1,7.0,0.5448458194732666,0,,,0.58,2,right,2.8
2,0,16,no,external,constant,long,1.7,,2.8,left,1,1,7.0,0.5150320529937744,0,,,0.26,2,right,2.8
2,0,17,no,external,constant,long,1.7,,2.8,left,1,1,7.0,0.4571449756622314,0,,,0.35,2,right,2.8
2,0,18,no,external,constant,long,1.1,,2.8,right,1,1,8.0,0.4797780513763428,0,,,0.34,2,right,2.8
2,0,19,no,external,constant,long,1.2,,2.8,right,1,1,8.0,0.4837770462036133,0,,,0.62,2,right,2.8
2,0,20,no,external,constant,long,1.3,,2.8,left,1,1,7.0,0.4387760162353515,0,,,0.33,2,right,2.8
2,0,21,no,external,constant,long,1.4,,2.8,right,1,1,8.0,0.4478058815002441,0,,,0.27,2,right,2.8
2,0,22,no,external,constant,long,1.6,,2.8,left,1,1,7.0,0.4420440196990967,0,,,0.24,2,right,2.8
2,0,23,no,external,constant,long,1.4,,2.8,right,1,1,8.0,0.4104080200195312,0,,,0.21,2,right,2.8
2,0,24,no,external,constant,long,1.0,,2.8,right,0,0,,,0,,,0.23,2,right,2.8
2,0,25,no,external,constant,long,1.1,,2.8,left,1,1,7.0,0.3434600830078125,0,,,0.34,2,right,2.8
2,0,26,no,external,constant,long,1.2,,2.8,right,1,1,8.0,0.4205400943756103,0,,,0.3,2,right,2.8
2,0,27,no,external,constant,long,1.6,,2.8,left,1,1,7.0,0.3954169750213623,0,,,0.5,2,right,2.8
2,0,28,no,external,constant,long,1.7,,2.8,left,0,1,8.0,0.2995538711547851,0,,,0.48,2,right,2.8
2,0,29,no,external,constant,long,1.4,,2.8,right,1,1,8.0,0.323789119720459,0,,,0.43,2,right,2.8
2,0,30,no,external,constant,long,1.1,,2.8,left,1,1,7.0,0.3490831851959228,0,,,0.24,2,right,2.8
2,0,31,no,external,constant,long,1.1,,2.8,left,1,1,7.0,0.4354569911956787,0,,,0.49,2,right,2.8
2,0,32,no,external,constant,long,1.5,,2.8,right,1,1,8.0,0.482450008392334,0,,,0.22,2,right,2.8
2,0,33,no,external,constant,long,1.3,,2.8,right,1,1,8.0,0.6527578830718994,0,,,0.41,2,right,2.8
2,0,34,no,external,constant,long,1.3,,2.8,left,1,1,7.0,0.4451141357421875,0,,,0.57,2,right,2.8
2,0,35,no,external,constant,long,1.2,,2.8,left,1,1,7.0,0.594857931137085,0,,,0.21,2,right,2.8
2,0,36,no,external,constant,long,1.0,,2.8,right,1,1,8.0,0.5886859893798828,0,,,0.26,2,right,2.8
2,0,37,no,external,constant,long,1.5,,2.8,right,1,1,8.0,0.5160210132598877,0,,,0.36,2,right,2.8
2,0,38,no,external,constant,long,1.4,,2.8,right,1,1,8.0,0.5298681259155273,0,,,0.17,2,right,2.8
2,0,39,no,external,constant,long,1.4,,2.8,left,1,1,7.0,0.7098009586334229,0,,,0.39,2,right,2.8
2,0,40,no,external,constant,long,1.3,,2.8,left,0,1,8.0,0.4280009269714355,0,,,0.3,2,right,2.8
2,0,41,no,external,constant,long,1.2,,2.8,left,1,1,7.0,0.4484992027282715,0,,,0.52,2,right,2.8
2,0,42,no,external,constant,long,1.1,,2.8,right,1,1,8.0,0.4086871147155761,0,,,0.54,2,right,2.8
2,0,43,no,external,constant,long,1.6,,2.8,right,1,1,8.0,0.5319669246673584,0,,,0.46,2,right,2.8
2,0,44,no,external,constant,long,1.4,,2.8,right,1,1,8.0,0.3816518783569336,0,,,0.33,2,right,2.8
2,0,45,no,external,constant,long,1.7,,2.8,right,1,1,8.0,0.4524018764495849,0,,,0.19,2,right,2.8
2,0,46,no,external,constant,long,1.2,,2.8,right,1,1,8.0,0.4112989902496338,0,,,0.56,2,right,2.8
2,0,47,no,external,constant,long,1.2,,2.8,right,1,1,8.0,0.3789618015289306,0,,,0.21,2,right,2.8
2,0,48,no,external,constant,long,1.2,,2.8,left,0,1,8.0,0.3284111022949219,0,,,0.19,2,right,2.8
2,0,49,no,external,constant,long,1.0,,2.8,left,1,1,7.0,0.4185328483581543,0,,,0.61,2,right,2.8
2,0,50,no,external,constant,long,1.2,,2.8,right,1,1,8.0,0.4507899284362793,0,,,0.24,2,right,2.8
2,0,51,no,external,constant,long,1.3,,2.8,right,1,1,8.0,0.3847181797027588,0,,,0.27,2,right,2.8
2,0,52,no,external,constant,long,1.6,,2.8,right,1,1,8.0,0.4600911140441894,0,,,0.55,2,right,2.8
2,0,53,no,external,constant,long,1.0,,2.8,left,1,1,7.0,0.3645567893981933,0,,,0.31,2,right,2.8
2,0,54,no,external,constant,long,1.4,,2.8,left,1,1,7.0,0.4578039646148681,0,,,0.24,2,right,2.8
2,0,55,no,external,constant,long,1.3,,2.8,left,1,1,7.0,0.3805418014526367,0,,,0.32,2,right,2.8
2,1,0,no,external,constant,short,1.4,,1.0,left,1,1,7.0,0.4344639778137207,0,,,0.25,2,right,
2,1,1,no,external,constant,short,1.0,,1.0,left,1,1,7.0,0.40065598487854,0,,,0.37,2,right,1.0
2,1,2,no,external,constant,short,1.7,,1.0,right,1,1,8.0,0.3051519393920898,0,,,0.64,2,right,1.0
2,1,3,no,external,constant,short,1.5,,1.0,left,1,1,7.0,0.2958199977874756,0,,,0.39,2,right,1.0
2,1,4,no,external,constant,short,1.4,,1.0,left,1,1,7.0,0.3499159812927246,0,,,0.18,2,right,1.0
2,1,5,no,external,constant,short,1.6,,1.0,left,1,1,7.0,0.2975759506225586,0,,,0.39,2,right,1.0
2,1,6,no,external,constant,short,1.2,,1.0,left,1,1,7.0,0.3214461803436279,0,,,0.33,2,right,1.0
2,1,7,no,external,constant,short,1.1,,1.0,right,1,1,8.0,0.410228967666626,0,,,0.19,2,right,1.0
2,1,8,no,external,constant,short,1.1,,1.0,right,1,1,8.0,0.4388010501861572,0,,,0.23,2,right,1.0
2,1,9,no,external,constant,short,1.7,,1.0,left,1,1,7.0,0.5539591312408447,0,,,0.2,2,right,1.0
2,1,10,no,external,constant,short,1.6,,1.0,right,1,1,8.0,0.4409749507904053,0,,,0.4,2,right,1.0
2,1,11,no,external,constant,short,1.6,,1.0,right,1,1,8.0,0.527061939239502,0,,,0.36,2,right,1.0
2,1,12,no,external,constant,short,1.1,,1.0,left,1,1,7.0,0.4206268787384033,0,,,0.17,2,right,1.0
2,1,13,no,external,constant,short,1.7,,1.0,left,1,1,7.0,0.471804141998291,0,,,0.29,2,right,1.0
2,1,14,no,external,constant,short,1.0,,1.0,left,1,1,7.0,0.4121718406677246,0,,,0.35,2,right,1.0
2,1,15,no,external,constant,short,1.0,,1.0,right,1,1,8.0,0.3822131156921386,0,,,0.2,2,right,1.0
2,1,16,no,external,constant,short,1.2,,1.0,right,1,1,8.0,0.4126250743865967,0,,,0.78,2,right,1.0
2,1,17,no,external,constant,short,1.0,,1.0,left,1,1,7.0,0.4169759750366211,0,,,0.22,2,right,1.0
2,1,18,no,external,constant,short,1.2,,1.0,left,1,1,7.0,0.4419739246368408,0,,,0.19,2,right,1.0
2,1,19,no,external,constant,short,1.2,,1.0,right,1,1,8.0,0.4618139266967773,0,,,0.79,2,right,1.0
2,1,20,no,external,constant,short,1.4,,1.0,right,1,1,8.0,0.4538130760192871,0,,,0.18,2,right,1.0
2,1,21,no,external,constant,short,1.1,,1.0,left,1,1,7.0,0.4326300621032715,0,,,0.25,2,right,1.0
2,1,22,no,external,constant,short,1.1,,1.0,left,1,1,7.0,0.3827970027923584,0,,,0.67,2,right,1.0
2,1,23,no,external,constant,short,1.4,,1.0,right,1,1,8.0,0.5287761688232422,0,,,0.21,2,right,1.0
2,1,24,no,external,constant,short,1.6,,1.0,right,1,1,8.0,0.5061779022216797,0,,,0.56,2,right,1.0
2,1,25,no,external,constant,short,1.4,,1.0,right,1,1,8.0,0.4472470283508301,0,,,0.34,2,right,1.0
2,1,26,no,external,constant,short,1.3,,1.0,right,1,1,8.0,0.5801100730895996,0,,,0.21,2,right,1.0
2,1,27,no,external,constant,short,1.1,,1.0,left,1,1,7.0,0.5797500610351562,0,,,0.19,2,right,1.0
2,1,28,no,external,constant,short,1.2,,1.0,left,1,1,7.0,0.5874519348144531,0,,,0.26,2,right,1.0
2,1,29,no,external,constant,short,1.4,,1.0,left,1,1,7.0,0.5431950092315674,0,,,0.56,2,right,1.0
2,1,30,no,external,constant,short,1.5,,1.0,right,1,1,8.0,0.4149749279022217,0,,,0.56,2,right,1.0
2,1,31,no,external,constant,short,1.0,,1.0,right,1,1,8.0,0.4786450862884521,0,,,0.28,2,right,1.0
2,1,32,no,external,constant,short,1.4,,1.0,left,1,1,7.0,0.3923099040985107,0,,,0.25,2,right,1.0
2,1,33,no,external,constant,short,1.3,,1.0,right,1,1,8.0,0.4461860656738281,0,,,0.19,2,right,1.0
2,1,34,no,external,constant,short,1.0,,1.0,left,1,1,7.0,0.4878449440002441,0,,,0.18,2,right,1.0
2,1,35,no,external,constant,short,1.3,,1.0,right,1,1,8.0,0.3854281902313232,0,,,0.24,2,right,1.0
2,1,36,no,external,constant,short,1.6,,1.0,right,1,1,8.0,0.4123189449310303,0,,,0.24,2,right,1.0
2,1,37,no,external,constant,short,1.2,,1.0,right,1,1,8.0,0.5465199947357178,0,,,0.2,2,right,1.0
2,1,38,no,external,constant,short,1.2,,1.0,right,1,1,8.0,0.4565341472625732,0,,,0.16,2,right,1.0
2,1,39,no,external,constant,short,1.6,,1.0,right,1,1,8.0,0.446422815322876,0,,,0.66,2,right,1.0
2,1,40,no,external,constant,short,1.4,,1.0,right,1,1,8.0,0.4346659183502197,0,,,0.38,2,right,1.0
2,1,41,no,external,constant,short,1.5,,1.0,left,1,1,7.0,0.4254999160766601,0,,,0.34,2,right,1.0
2,1,42,no,external,constant,short,1.6,,1.0,left,1,1,7.0,0.390178918838501,0,,,0.42,2,right,1.0
2,1,43,no,external,constant,short,1.6,,1.0,left,1,1,7.0,0.5164999961853027,0,,,0.53,2,right,1.0
2,1,44,no,external,constant,short,1.2,,1.0,right,1,1,8.0,0.4335401058197021,0,,,0.29,2,right,1.0
2,1,45,no,external,constant,short,1.5,,1.0,right,1,1,8.0,0.5405349731445312,0,,,0.52,2,right,1.0
2,1,46,no,external,constant,short,1.3,,1.0,left,1,1,7.0,0.4258320331573486,0,,,0.76,2,right,1.0
2,1,47,no,external,constant,short,1.4,,1.0,right,1,1,8.0,0.3828358650207519,0,,,0.51,2,right,1.0
2,1,48,no,external,constant,short,1.1,,1.0,left,1,1,7.0,0.4002008438110351,0,,,0.3,2,right,1.0
2,1,49,no,external,constant,short,1.4,,1.0,right,1,1,8.0,0.3268401622772217,0,,,0.38,2,right,1.0
2,1,50,no,external,constant,short,1.0,,1.0,right,1,1,8.0,0.5001449584960938,0,,,0.68,2,right,1.0
2,1,51,no,external,constant,short,1.4,,1.0,right,1,1,8.0,0.4892871379852295,0,,,0.19,2,right,1.0
2,1,52,no,external,constant,short,1.6,,1.0,left,1,1,7.0,0.4048359394073486,0,,,0.21,2,right,1.0
2,1,53,no,external,constant,short,1.4,,1.0,left,1,1,7.0,0.4805521965026855,0,,,0.17,2,right,1.0
2,1,54,no,external,constant,short,1.5,,1.0,left,1,1,7.0,0.4140050411224365,0,,,0.31,2,right,1.0
2,1,55,no,external,constant,short,1.4,,1.0,left,1,1,7.0,0.381814956665039,0,,,0.21,2,right,1.0
2,2,0,no,external,variable,,1.2,,2.8,right,1,1,8.0,0.5155191421508789,0,,,0.55,2,right,
2,2,1,no,external,variable,,1.5,,2.8,left,1,1,7.0,0.3385348320007324,0,,,0.22,2,right,2.8
2,2,2,no,external,variable,,1.7,,2.8,right,1,1,8.0,0.3785791397094726,0,,,0.53,2,right,2.8
2,2,3,no,external,variable,,1.7,,2.8,right,1,1,8.0,0.5219058990478516,0,,,0.28,2,right,2.8
2,2,4,no,external,variable,,1.7,,2.8,left,1,1,7.0,0.4552948474884033,0,,,0.28,2,right,2.8
2,2,5,no,external,variable,,1.2,,2.8,right,1,1,8.0,0.3244287967681885,0,,,0.37,2,right,2.8
2,2,6,no,external,variable,,1.0,,1.0,right,1,1,8.0,0.4316351413726806,0,,,0.3,2,right,2.8
2,2,7,no,external,variable,,1.7,,1.0,right,1,1,8.0,0.4665620326995849,0,,,0.69,2,right,1.0
2,2,8,no,external,variable,,1.0,,2.8,left,1,1,7.0,0.4904999732971191,0,,,0.32,2,right,1.0
2,2,9,no,external,variable,,1.7,,1.0,left,1,1,7.0,0.4512639045715332,0,,,0.54,2,right,2.8
2,2,10,no,external,variable,,1.3,,2.8,right,1,1,8.0,0.4344661235809326,0,,,0.17,2,right,1.0
2,2,11,no,external,variable,,1.6,,2.8,right,1,1,8.0,0.4905569553375244,0,,,0.73,2,right,2.8
2,2,12,no,external,variable,,1.2,,1.0,left,1,1,7.0,0.4159960746765136,0,,,0.17,2,right,2.8
2,2,13,no,external,variable,,1.4,,2.8,right,1,1,8.0,0.4360880851745605,0,,,0.17,2,right,1.0
2,2,14,no,external,variable,,1.6,,2.8,left,1,1,7.0,0.483238935470581,0,,,0.26,2,right,2.8
2,2,15,no,external,variable,,1.2,,2.8,left,1,1,7.0,0.5268459320068359,0,,,0.5,2,right,2.8
2,2,16,no,external,variable,,1.1,,1.0,right,1,1,8.0,0.6163280010223389,0,,,0.66,2,right,2.8
2,2,17,no,external,variable,,1.1,,1.0,right,1,1,8.0,0.484036922454834,0,,,0.24,2,right,1.0
2,2,18,no,external,variable,,1.5,,1.0,left,1,1,7.0,0.5089750289916992,0,,,0.43,2,right,1.0
2,2,19,no,external,variable,,1.6,,2.8,right,1,1,8.0,0.5157511234283447,0,,,0.32,2,right,1.0
2,2,20,no,external,variable,,1.5,,2.8,right,1,1,8.0,0.6365420818328857,0,,,0.3,2,right,2.8
2,2,21,no,external,variable,,1.4,,1.0,left,1,1,7.0,0.388481855392456,0,,,0.25,2,right,2.8
2,2,22,no,external,variable,,1.6,,2.8,left,1,1,7.0,0.5128459930419922,0,,,0.29,2,right,1.0
2,2,23,no,external,variable,,1.3,,2.8,right,1,1,8.0,0.526533842086792,0,,,0.3,2,right,2.8
2,2,24,no,external,variable,,1.0,,1.0,left,1,1,7.0,0.5508599281311035,0,,,0.2,2,right,2.8
2,2,25,no,external,variable,,1.1,,2.8,left,1,1,7.0,0.483597993850708,0,,,0.38,2,right,1.0
2,2,26,no,external,variable,,1.6,,1.0,left,1,1,7.0,0.4265909194946289,0,,,0.64,2,right,2.8
2,2,27,no,external,variable,,1.3,,1.0,right,1,1,8.0,0.4373490810394287,0,,,0.22,2,right,1.0
2,2,28,no,external,variable,,1.4,,2.8,right,1,1,8.0,0.4635488986968994,0,,,0.21,2,right,1.0
2,2,29,no,external,variable,,1.2,,1.0,right,1,1,8.0,0.4485859870910644,0,,,0.33,2,right,2.8
2,2,30,no,external,variable,,1.5,,1.0,right,1,1,8.0,0.4413239955902099,0,,,0.33,2,right,1.0
2,2,31,no,external,variable,,1.0,,1.0,right,1,1,8.0,0.4101901054382324,0,,,0.4,2,right,1.0
2,2,32,no,external,variable,,1.5,,1.0,left,1,1,7.0,0.3449208736419678,0,,,0.43,2,right,1.0
2,2,33,no,external,variable,,1.1,,2.8,right,0,1,7.0,0.45623779296875,0,,,0.2,2,right,1.0
2,2,34,no,external,variable,,1.2,,1.0,left,1,1,7.0,0.4238719940185547,0,,,0.36,2,right,2.8
2,2,35,no,external,variable,,1.6,,1.0,left,1,1,7.0,0.445552110671997,0,,,0.66,2,right,1.0
2,2,36,no,external,variable,,1.7,,2.8,left,1,1,7.0,0.4915380477905273,0,,,0.26,2,right,1.0
2,2,37,no,external,variable,,1.3,,1.0,right,1,1,8.0,0.4370598793029785,0,,,0.24,2,right,2.8
2,2,38,no,external,variable,,1.3,,1.0,left,1,1,7.0,0.375694990158081,0,,,0.49,2,right,1.0
2,2,39,no,external,variable,,1.7,,1.0,left,1,1,7.0,0.5305540561676025,0,,,0.2,2,right,1.0
2,2,40,no,external,variable,,1.7,,1.0,left,1,1,7.0,0.3686790466308594,0,,,0.19,2,right,1.0
2,2,41,no,external,variable,,1.3,,1.0,left,1,1,7.0,0.3583629131317138,0,,,0.22,2,right,1.0
2,2,42,no,external,variable,,1.1,,2.8,left,1,1,7.0,0.3082180023193359,0,,,0.16,2,right,1.0
2,2,43,no,external,variable,,1.4,,1.0,right,0,1,7.0,0.3682208061218261,0,,,0.24,2,right,2.8
2,2,44,no,external,variable,,1.5,,1.0,left,1,1,7.0,0.4150209426879883,0,,,0.21,2,right,1.0
2,2,45,no,external,variable,,1.6,,2.8,left,1,1,7.0,0.497391939163208,0,,,0.19,2,right,1.0
2,2,46,no,external,variable,,1.6,,1.0,right,1,1,8.0,0.4934909343719482,0,,,0.36,2,right,2.8
2,2,47,no,external,variable,,1.3,,1.0,left,1,1,7.0,0.4213519096374511,0,,,0.22,2,right,1.0
2,2,48,no,external,variable,,1.4,,2.8,right,1,1,8.0,0.4122130870819092,0,,,0.72,2,right,1.0
2,2,49,no,external,variable,,1.5,,2.8,left,1,1,7.0,0.3912858963012695,0,,,0.17,2,right,2.8
2,2,50,no,external,variable,,1.6,,1.0,right,1,1,8.0,0.4365308284759521,0,,,0.32,2,right,2.8
2,2,51,no,external,variable,,1.4,,2.8,right,1,1,8.0,0.4915518760681152,0,,,0.34,2,right,1.0
2,2,52,no,external,variable,,1.3,,2.8,right,1,1,8.0,0.5224058628082275,0,,,0.24,2,right,2.8
2,2,53,no,external,variable,,1.2,,1.0,left,1,1,7.0,0.437230110168457,0,,,0.25,2,right,2.8
2,2,54,no,external,variable,,1.2,,2.8,left,1,1,7.0,0.4667179584503174,0,,,0.33,2,right,1.0
2,2,55,no,external,variable,,1.4,,2.8,right,1,1,8.0,0.4005360603332519,0,,,0.73,2,right,2.8
2,3,0,no,external,variable,,1.0,,2.8,left,1,1,7.0,0.5923459529876709,0,,,0.33,2,right,
2,3,1,no,external,variable,,1.2,,1.0,left,1,1,7.0,0.4094560146331787,0,,,0.3,2,right,2.8
2,3,2,no,external,variable,,1.4,,1.0,left,1,1,7.0,0.3465528488159179,0,,,0.24,2,right,1.0
2,3,3,no,external,variable,,1.3,,2.8,right,1,1,8.0,0.4956068992614746,0,,,0.23,2,right,1.0
2,3,4,no,external,variable,,1.7,,1.0,right,1,1,8.0,0.4387290477752685,0,,,0.38,2,right,2.8
2,3,5,no,external,variable,,1.7,,2.8,right,1,1,8.0,0.4386618137359619,0,,,0.26,2,right,1.0
2,3,6,no,external,variable,,1.1,,2.8,right,1,1,8.0,0.5150570869445801,0,,,0.3,2,right,2.8
2,3,7,no,external,variable,,1.3,,2.8,left,1,1,7.0,0.5383601188659668,0,,,0.43,2,right,2.8
2,3,8,no,external,variable,,1.6,,2.8,right,1,1,8.0,0.4663999080657959,0,,,0.31,2,right,2.8
2,3,9,no,external,variable,,1.2,,2.8,left,1,1,7.0,0.422692060470581,0,,,0.16,2,right,2.8
2,3,10,no,external,variable,,1.1,,2.8,left,1,1,7.0,0.3776988983154297,0,,,0.17,2,right,2.8
2,3,11,no,external,variable,,1.4,,2.8,left,1,1,7.0,0.3763549327850342,0,,,0.3,2,right,2.8
2,3,12,no,external,variable,,1.5,,1.0,right,1,1,8.0,0.6012861728668213,0,,,0.28,2,right,2.8
2,3,13,no,external,variable,,1.7,,1.0,right,0,1,7.0,0.4579160213470459,0,,,0.26,2,right,1.0
2,3,14,no,external,variable,,1.0,,1.0,right,1,1,8.0,0.5172650814056396,0,,,0.29,2,right,1.0
2,3,15,no,external,variable,,1.7,,2.8,left,1,1,7.0,0.5159399509429932,0,,,0.53,2,right,1.0
2,3,16,no,external,variable,,1.6,,1.0,right,1,1,8.0,0.545555830001831,0,,,0.59,2,right,2.8
2,3,17,no,external,variable,,1.2,,2.8,right,1,1,8.0,0.5734729766845703,0,,,0.57,2,right,1.0
2,3,18,no,external,variable,,1.4,,1.0,left,1,1,7.0,0.5422499179840088,0,,,0.17,2,right,2.8
2,3,19,no,external,variable,,1.7,,2.8,right,1,1,8.0,0.4615399837493896,0,,,0.43,2,right,1.0
2,3,20,no,external,variable,,1.1,,1.0,left,1,1,7.0,0.430588960647583,0,,,0.42,2,right,2.8
2,3,21,no,external,variable,,1.1,,1.0,right,1,1,8.0,0.3665571212768554,0,,,0.18,2,right,1.0
2,3,22,no,external,variable,,1.2,,2.8,left,1,1,7.0,0.4700260162353515,0,,,0.31,2,right,1.0
2,3,23,no,external,variable,,1.5,,2.8,right,1,1,8.0,0.5235660076141357,0,,,0.28,2,right,2.8
2,3,24,no,external,variable,,1.2,,1.0,left,1,1,7.0,0.4570229053497314,0,,,0.19,2,right,2.8
2,3,25,no,external,variable,,1.6,,2.8,right,1,1,8.0,0.3970348834991455,0,,,0.22,2,right,1.0
2,3,26,no,external,variable,,1.0,,2.8,left,1,1,7.0,0.4012351036071777,0,,,0.18,2,right,2.8
2,3,27,no,external,variable,,1.4,,2.8,right,1,1,8.0,0.4603250026702881,0,,,0.23,2,right,2.8
2,3,28,no,external,variable,,1.7,,1.0,right,1,1,8.0,0.6123650074005127,0,,,0.23,2,right,2.8
2,3,29,no,external,variable,,1.1,,2.8,right,1,1,8.0,0.414902925491333,0,,,0.31,2,right,1.0
2,3,30,no,external,variable,,1.2,,2.8,right,1,1,8.0,0.5250270366668701,0,,,0.24,2,right,2.8
2,3,31,no,external,variable,,1.2,,1.0,left,1,1,7.0,0.5559079647064209,0,,,0.17,2,right,2.8
2,3,32,no,external,variable,,1.3,,1.0,right,1,1,8.0,0.3996369838714599,0,,,0.22,2,right,1.0
2,3,33,no,external,variable,,1.6,,1.0,right,1,1,8.0,0.4107730388641357,0,,,0.52,2,right,1.0
2,3,34,no,external,variable,,1.3,,1.0,left,1,1,7.0,0.4344429969787597,0,,,0.35,2,right,1.0
2,3,35,no,external,variable,,1.5,,1.0,right,1,1,8.0,0.3365919589996338,0,,,0.71,2,right,1.0
2,3,36,no,external,variable,,1.5,,1.0,left,1,1,7.0,0.3989129066467285,0,,,0.52,2,right,1.0
2,3,37,no,external,variable,,1.3,,1.0,right,1,1,8.0,0.4075720310211181,0,,,0.25,2,right,1.0
2,3,38,no,external,variable,,1.4,,1.0,left,1,1,7.0,0.4266920089721679,0,,,0.73,2,right,1.0
2,3,39,no,external,variable,,1.1,,2.8,right,1,1,8.0,0.3883559703826904,0,,,0.46,2,right,1.0
2,3,40,no,external,variable,,1.0,,2.8,left,1,1,7.0,0.4393610954284668,0,,,0.21,2,right,2.8
2,3,41,no,external,variable,,1.3,,1.0,left,1,1,7.0,0.4713308811187744,0,,,0.23,2,right,2.8
2,3,42,no,external,variable,,1.5,,1.0,left,1,1,7.0,0.5501911640167236,0,,,0.36,2,right,1.0
2,3,43,no,external,variable,,1.1,,2.8,left,1,1,7.0,0.5280649662017822,0,,,0.25,2,right,1.0
2,3,44,no,external,variable,,1.3,,2.8,left,1,1,7.0,0.5060329437255859,0,,,0.3,2,right,2.8
2,3,45,no,external,variable,,1.1,,1.0,left,1,1,7.0,0.4049520492553711,0,,,0.3,2,right,2.8
2,3,46,no,external,variable,,1.6,,2.8,right,1,1,8.0,0.442363977432251,0,,,0.28,2,right,1.0
2,3,47,no,external,variable,,1.6,,1.0,right,1,1,8.0,0.6944670677185059,0,,,0.43,2,right,2.8
2,3,48,no,external,variable,,1.4,,2.8,right,1,1,8.0,0.4053301811218261,0,,,0.41,2,right,1.0
2,3,49,no,external,variable,,1.1,,1.0,right,1,1,8.0,0.6165578365325928,0,,,0.48,2,right,2.8
2,3,50,no,external,variable,,1.0,,1.0,left,1,1,7.0,0.4015471935272217,0,,,0.22,2,right,1.0
2,3,51,no,external,variable,,1.5,,1.0,left,1,1,7.0,0.4510929584503174,0,,,0.34,2,right,1.0
2,3,52,no,external,variable,,1.0,,2.8,left,1,1,7.0,0.4942240715026855,0,,,0.36,2,right,1.0
2,3,53,no,external,variable,,1.6,,2.8,left,1,1,7.0,0.4623579978942871,0,,,0.74,2,right,2.8
2,3,54,no,external,variable,,1.6,,2.8,right,1,1,8.0,0.4783937931060791,0,,,0.37,2,right,2.8
2,3,55,no,external,variable,,1.7,,1.0,left,1,1,7.0,0.486063003540039,0,,,0.17,2,right,2.8
2,4,0,no,action,variable,,,50.9752209186554,1.0,left,1,1,7.0,0.653439998626709,0,,,0.38,2,right,
2,4,1,no,action,variable,,,8.50098705291748,1.0,right,1,1,8.0,0.4638950824737549,0,,,0.23,2,right,1.0
2,4,2,no,action,variable,,,3.655879020690918,2.8,left,1,1,7.0,0.4328370094299316,0,,,0.46,2,right,1.0
2,4,3,no,action,variable,,,0.8562610149383545,1.0,right,1,1,8.0,0.4098761081695556,0,,,0.37,2,right,2.8
2,4,4,no,action,variable,,,2.251699924468994,2.8,left,1,1,7.0,0.2909839153289795,0,,,0.43,2,right,1.0
2,4,5,no,action,variable,,,2.5339088439941406,1.0,left,1,1,7.0,0.382282018661499,0,,,0.55,2,right,2.8
2,4,6,no,action,variable,,,2.9658989906311035,1.0,left,1,1,7.0,0.3718249797821045,0,,,0.67,2,right,1.0
2,4,7,no,action,variable,,,0.7572290897369385,2.8,right,1,1,8.0,0.3648309707641601,0,,,0.27,2,right,1.0
2,4,8,no,action,variable,,,0.5725898742675781,2.8,right,0,1,7.0,0.3449587821960449,0,,,0.2,2,right,2.8
2,4,9,no,action,variable,,,2.054992914199829,1.0,left,1,1,7.0,0.4149391651153564,0,,,0.33,2,right,2.8
2,4,10,no,action,variable,,,0.9749710559844972,2.8,right,1,1,8.0,0.4752240180969238,0,,,0.25,2,right,1.0
2,4,11,no,action,variable,,,1.5312509536743164,1.0,left,1,1,7.0,0.3777918815612793,0,,,0.25,2,right,2.8
2,4,12,no,action,variable,,,1.0597188472747805,1.0,right,1,1,8.0,0.4334790706634521,0,,,0.27,2,right,1.0
2,4,13,no,action,variable,,,0.6974799633026123,1.0,left,1,1,7.0,0.3888781070709228,0,,,0.41,2,right,1.0
2,4,14,no,action,variable,,,0.6486389636993408,2.8,right,1,1,8.0,0.384559154510498,0,,,0.6,2,right,1.0
2,4,15,no,action,variable,,,2.5899438858032227,1.0,right,1,1,8.0,0.5048301219940186,0,,,0.2,2,right,2.8
2,4,16,no,action,variable,,,0.5589230060577393,1.0,right,1,1,8.0,0.4562950134277344,0,,,0.31,2,right,1.0
2,4,17,no,action,variable,,,0.5041918754577637,2.8,right,1,1,8.0,0.369791030883789,0,,,0.67,2,right,1.0
2,4,18,no,action,variable,,,0.8151719570159912,2.8,right,1,1,8.0,0.3924760818481445,0,,,0.43,2,right,2.8
2,4,19,no,action,variable,,,1.004281997680664,1.0,right,1,1,8.0,0.415132999420166,0,,,0.39,2,right,2.8
2,4,20,no,action,variable,,,0.8107540607452393,2.8,left,1,1,7.0,0.4469878673553467,0,,,0.26,2,right,1.0
2,4,21,no,action,variable,,,0.8807320594787598,1.0,right,1,1,8.0,0.3695330619812011,0,,,0.47,2,right,2.8
2,4,22,no,action,variable,,,0.741279125213623,2.8,right,1,1,8.0,0.4752998352050781,0,,,0.38,2,right,1.0
2,4,23,no,action,variable,,,0.9890739917755128,2.8,left,1,1,7.0,0.3245019912719726,0,,,0.57,2,right,2.8
2,4,24,no,action,variable,,,0.8823709487915039,2.8,left,1,1,7.0,0.4865658283233642,0,,,0.17,2,right,2.8
2,4,25,no,action,variable,,,1.1124160289764404,2.8,left,1,1,7.0,0.4390461444854736,0,,,0.19,2,right,2.8
2,4,26,no,action,variable,,,0.9831058979034424,2.8,left,1,1,7.0,0.386240005493164,0,,,0.44,2,right,2.8
2,4,27,no,action,variable,,,1.1698179244995115,1.0,right,1,1,8.0,0.403688907623291,0,,,0.18,2,right,2.8
2,4,28,no,action,variable,,,0.6956791877746582,2.8,left,1,1,7.0,0.3509209156036377,0,,,0.26,2,right,1.0
2,4,29,no,action,variable,,,0.7109520435333252,1.0,left,1,1,7.0,0.4742441177368164,0,,,0.53,2,right,2.8
2,4,30,no,action,variable,,,0.6076319217681885,1.0,left,1,1,7.0,0.3889448642730713,0,,,0.37,2,right,1.0
2,4,31,no,action,variable,,,0.6066210269927979,1.0,right,0,1,7.0,0.3978719711303711,0,,,0.28,2,right,1.0
2,4,32,no,action,variable,,,0.7857089042663574,2.8,right,1,1,8.0,0.4512159824371338,0,,,0.17,2,right,1.0
2,4,33,no,action,variable,,,0.8772001266479492,1.0,left,1,1,7.0,0.4529399871826172,0,,,0.32,2,right,2.8
2,4,34,no,action,variable,,,0.9728999137878418,2.8,left,1,1,7.0,0.4895830154418945,0,,,0.28,2,right,1.0
2,4,35,no,action,variable,,,0.6214849948883057,2.8,left,1,1,7.0,0.4394819736480713,0,,,0.49,2,right,2.8
2,4,36,no,action,variable,,,1.113192081451416,1.0,left,1,1,7.0,0.481572151184082,0,,,0.2,2,right,2.8
2,4,37,no,action,variable,,,0.6416950225830078,2.8,right,1,1,8.0,0.493682861328125,0,,,0.75,2,right,1.0
2,4,38,no,action,variable,,,0.7891569137573242,1.0,right,1,1,8.0,0.4501910209655761,0,,,0.31,2,right,2.8
2,4,39,no,action,variable,,,0.9519660472869872,1.0,left,1,1,7.0,0.4116799831390381,0,,,0.4,2,right,1.0
2,4,40,no,action,variable,,,0.8434648513793945,2.8,right,1,1,8.0,0.3982338905334472,0,,,0.18,2,right,1.0
2,4,41,no,action,variable,,,1.000253200531006,2.8,left,1,1,7.0,0.6970069408416748,0,,,0.22,2,right,2.8
2,4,42,no,action,variable,,,0.8192219734191895,1.0,left,1,1,7.0,0.605518102645874,0,,,0.19,2,right,2.8
2,4,43,no,action,variable,,,0.8416769504547119,1.0,right,1,1,8.0,0.382303237915039,0,,,0.49,2,right,1.0
2,4,44,no,action,variable,,,0.961623191833496,1.0,left,1,1,7.0,0.3639841079711914,0,,,0.72,2,right,1.0
2,4,45,no,action,variable,,,0.7654900550842285,2.8,left,1,1,7.0,0.4206531047821045,0,,,0.7,2,right,1.0
2,4,46,no,action,variable,,,0.8785080909729004,2.8,right,1,1,8.0,0.4719958305358886,0,,,0.31,2,right,2.8
2,4,47,no,action,variable,,,0.9577360153198242,2.8,right,1,1,8.0,0.4250218868255615,0,,,0.3,2,right,2.8
2,4,48,no,action,variable,,,0.6751151084899902,1.0,right,1,1,8.0,0.430250883102417,0,,,0.61,2,right,2.8
2,4,49,no,action,variable,,,0.7298340797424316,1.0,right,1,1,8.0,0.3683760166168213,0,,,0.33,2,right,1.0
2,4,50,no,action,variable,,,0.5922591686248779,1.0,left,1,1,7.0,0.3616511821746826,0,,,0.41,2,right,1.0
2,4,51,no,action,variable,,,0.6872720718383789,2.8,right,1,1,8.0,0.3314650058746338,0,,,0.18,2,right,1.0
2,4,52,no,action,variable,,,0.803555965423584,2.8,right,1,1,8.0,0.4020259380340576,0,,,0.44,2,right,2.8
2,4,53,no,action,variable,,,1.0177490711212158,2.8,left,1,1,7.0,0.3377189636230469,0,,,0.17,2,right,2.8
2,4,54,no,action,variable,,,0.6316738128662109,1.0,left,0,1,8.0,0.4096059799194336,0,,,0.69,2,right,2.8
2,4,55,no,action,variable,,,0.7889161109924316,2.8,right,0,1,7.0,0.3548610210418701,0,,,0.63,2,right,1.0
2,5,0,no,action,constant,long,,2.651280879974365,2.8,left,1,1,7.0,0.4323098659515381,0,,,0.45,2,right,
2,5,1,no,action,constant,long,,0.8120129108428955,2.8,left,1,1,7.0,0.3519089221954345,0,,,0.25,2,right,2.8
2,5,2,no,action,constant,long,,1.0199220180511477,2.8,right,1,1,8.0,0.4110281467437744,0,,,0.26,2,right,2.8
2,5,3,no,action,constant,long,,0.7427010536193848,2.8,right,1,1,8.0,0.3992259502410888,0,,,0.17,2,right,2.8
2,5,4,no,action,constant,long,,0.7829699516296387,2.8,right,1,1,8.0,0.4632630348205566,0,,,0.22,2,right,2.8
2,5,5,no,action,constant,long,,0.8294579982757568,2.8,right,1,1,8.0,0.4392309188842773,0,,,0.37,2,right,2.8
2,5,6,no,action,constant,long,,0.7010679244995117,2.8,left,1,1,7.0,0.3985128402709961,0,,,0.16,2,right,2.8
2,5,7,no,action,constant,long,,0.5305850505828857,2.8,right,1,1,8.0,0.4229030609130859,0,,,0.44,2,right,2.8
2,5,8,no,action,constant,long,,0.7304480075836182,2.8,left,1,1,7.0,0.3839831352233886,0,,,0.51,2,right,2.8
2,5,9,no,action,constant,long,,1.1096768379211426,2.8,right,1,1,8.0,0.4352900981903076,0,,,0.55,2,right,2.8
2,5,10,no,action,constant,long,,1.0951859951019287,2.8,left,1,1,7.0,0.419623851776123,0,,,0.27,2,right,2.8
2,5,11,no,action,constant,long,,0.567878007888794,2.8,left,1,1,7.0,0.4044938087463379,0,,,0.63,2,right,2.8
2,5,12,no,action,constant,long,,0.5599949359893799,2.8,left,1,1,7.0,0.3606250286102295,0,,,0.24,2,right,2.8
2,5,13,no,action,constant,long,,0.8327310085296631,2.8,left,1,1,7.0,0.3938400745391845,0,,,0.47,2,right,2.8
2,5,14,no,action,constant,long,,0.7636711597442627,2.8,right,1,1,8.0,0.4305629730224609,0,,,0.31,2,right,2.8
2,5,15,no,action,constant,long,,0.8083620071411133,2.8,right,1,1,8.0,0.4578199386596679,0,,,0.24,2,right,2.8
2,5,16,no,action,constant,long,,0.865900993347168,2.8,left,1,1,7.0,0.4233160018920898,0,,,0.38,2,right,2.8
2,5,17,no,action,constant,long,,0.811154842376709,2.8,left,1,1,7.0,0.4898500442504883,0,,,0.24,2,right,2.8
2,5,18,no,action,constant,long,,0.7037169933319092,2.8,right,1,1,8.0,0.404214859008789,0,,,0.18,2,right,2.8
2,5,19,no,action,constant,long,,0.5780951976776123,2.8,left,1,1,7.0,0.3799879550933838,0,,,0.45,2,right,2.8
2,5,20,no,action,constant,long,,0.7436010837554932,2.8,left,1,1,7.0,0.4322829246520996,0,,,0.18,2,right,2.8
2,5,21,no,action,constant,long,,0.7863619327545166,2.8,right,1,1,8.0,0.4275178909301758,0,,,0.2,2,right,2.8
2,5,22,no,action,constant,long,,0.9933240413665771,2.8,right,1,1,8.0,0.4639208316802978,0,,,0.18,2,right,2.8
2,5,23,no,action,constant,long,,2.47012710571289,2.8,right,1,1,8.0,0.4376990795135498,0,,,0.45,2,right,2.8
2,5,24,no,action,constant,long,,1.0996248722076416,2.8,left,1,1,7.0,0.3718578815460205,0,,,0.25,2,right,2.8
2,5,25,no,action,constant,long,,0.7619051933288574,2.8,right,1,1,8.0,0.3633151054382324,0,,,0.68,2,right,2.8
2,5,26,no,action,constant,long,,0.5331380367279053,2.8,left,1,1,7.0,0.3929989337921142,0,,,0.21,2,right,2.8
2,5,27,no,action,constant,long,,0.7150669097900391,2.8,left,1,1,7.0,0.3981208801269531,0,,,0.41,2,right,2.8
2,5,28,no,action,constant,long,,0.4940168857574463,2.8,right,1,1,8.0,0.4140779972076416,0,,,0.19,2,right,2.8
2,5,29,no,action,constant,long,,1.0263819694519043,2.8,right,1,1,8.0,0.4355008602142334,0,,,0.75,2,right,2.8
2,5,30,no,action,constant,long,,0.5967140197753906,2.8,left,1,1,7.0,0.3893780708312988,0,,,0.56,2,right,2.8
2,5,31,no,action,constant,long,,0.5893020629882812,2.8,right,1,1,8.0,0.4035589694976806,0,,,0.4,2,right,2.8
2,5,32,no,action,constant,long,,0.9233548641204834,2.8,right,1,1,8.0,0.4206471443176269,0,,,0.25,2,right,2.8
2,5,33,no,action,constant,long,,0.6244909763336182,2.8,left,1,1,7.0,0.4075930118560791,0,,,0.44,2,right,2.8
2,5,34,no,action,constant,long,,0.7934958934783936,2.8,left,1,1,7.0,0.4241218566894531,0,,,0.57,2,right,2.8
2,5,35,no,action,constant,long,,0.9616968631744384,2.8,right,1,1,8.0,0.3606810569763183,0,,,0.32,2,right,2.8
2,5,36,no,action,constant,long,,0.7565209865570068,2.8,left,1,1,7.0,0.473783016204834,0,,,0.17,2,right,2.8
2,5,37,no,action,constant,long,,0.6839051246643066,2.8,right,1,1,8.0,0.3619508743286133,0,,,0.37,2,right,2.8
2,5,38,no,action,constant,long,,0.8877918720245361,2.8,right,1,1,8.0,0.3713719844818115,0,,,0.23,2,right,2.8
2,5,39,no,action,constant,long,,0.7534940242767334,2.8,right,1,1,8.0,0.4202799797058105,0,,,0.17,2,right,2.8
2,5,40,no,action,constant,long,,0.7722361087799072,2.8,left,1,1,7.0,0.4283719062805176,0,,,0.3,2,right,2.8
2,5,41,no,action,constant,long,,0.8844149112701416,2.8,left,1,1,7.0,0.4472811222076416,0,,,0.19,2,right,2.8
2,5,42,no,action,constant,long,,0.9917891025543212,2.8,right,1,1,8.0,0.3972830772399902,0,,,0.62,2,right,2.8
2,5,43,no,action,constant,long,,1.0965769290924072,2.8,left,1,1,7.0,0.3443520069122314,0,,,0.33,2,right,2.8
2,5,44,no,action,constant,long,,0.590238094329834,2.8,right,1,1,8.0,0.4579310417175293,0,,,0.38,2,right,2.8
2,5,45,no,action,constant,long,,1.1354022026062012,2.8,left,1,1,7.0,0.3790280818939209,0,,,0.28,2,right,2.8
2,5,46,no,action,constant,long,,0.9609699249267578,2.8,right,1,1,8.0,0.4014010429382324,0,,,0.6,2,right,2.8
2,5,47,no,action,constant,long,,0.6611948013305664,2.8,left,1,1,7.0,0.3452529907226562,0,,,0.21,2,right,2.8
2,5,48,no,action,constant,long,,0.914781093597412,2.8,left,1,1,7.0,0.4120900630950928,0,,,0.55,2,right,2.8
2,5,49,no,action,constant,long,,0.7937948703765869,2.8,right,0,1,7.0,0.3365700244903564,0,,,0.31,2,right,2.8
2,5,50,no,action,constant,long,,1.1023221015930176,2.8,right,1,1,8.0,0.4261970520019531,0,,,0.33,2,right,2.8
2,5,51,no,action,constant,long,,0.9520330429077148,2.8,right,1,1,8.0,0.4528729915618896,0,,,0.21,2,right,2.8
2,5,52,no,action,constant,long,,0.9430208206176758,2.8,left,1,1,7.0,0.3829398155212402,0,,,0.35,2,right,2.8
2,5,53,no,action,constant,long,,0.5226380825042725,2.8,left,1,1,7.0,0.4119529724121094,0,,,0.35,2,right,2.8
2,5,54,no,action,constant,long,,0.7578887939453125,2.8,left,1,1,7.0,0.3853750228881836,0,,,0.26,2,right,2.8
2,5,55,no,action,constant,long,,0.6994328498840332,2.8,right,1,1,8.0,0.3973150253295898,0,,,0.16,2,right,2.8
2,6,0,no,action,variable,,,2.31365704536438,1.0,right,1,1,8.0,0.4184141159057617,0,,,0.22,2,right,
2,6,1,no,action,variable,,,0.7623658180236816,2.8,left,1,1,7.0,0.3914451599121094,0,,,0.17,2,right,1.0
2,6,2,no,action,variable,,,0.7392768859863281,2.8,right,1,1,8.0,0.3767569065093994,0,,,0.45,2,right,2.8
2,6,3,no,action,variable,,,0.5527207851409912,2.8,right,1,1,8.0,0.3990581035614013,0,,,0.31,2,right,2.8
2,6,4,no,action,variable,,,0.6149458885192871,2.8,left,1,1,7.0,0.3839340209960937,0,,,0.66,2,right,2.8
2,6,5,no,action,variable,,,0.61142897605896,1.0,right,1,1,8.0,0.4212970733642578,0,,,0.2,2,right,2.8
2,6,6,no,action,variable,,,0.5332751274108887,1.0,left,1,1,7.0,0.353827953338623,0,,,0.74,2,right,1.0
2,6,7,no,action,variable,,,0.6153378486633301,1.0,left,1,1,7.0,0.4673888683319092,0,,,0.33,2,right,1.0
2,6,8,no,action,variable,,,0.5352709293365479,2.8,left,1,1,7.0,0.4167580604553222,0,,,0.27,2,right,1.0
2,6,9,no,action,variable,,,0.568763017654419,1.0,left,1,1,7.0,0.3672239780426025,0,,,0.5,2,right,2.8
2,6,10,no,action,variable,,,0.4508290290832519,2.8,left,1,1,7.0,0.4113590717315674,0,,,0.21,2,right,1.0
2,6,11,no,action,variable,,,0.6291370391845703,2.8,right,1,1,8.0,0.4594359397888183,0,,,0.41,2,right,2.8
2,6,12,no,action,variable,,,0.885371208190918,1.0,right,0,1,7.0,0.3799068927764892,0,,,0.45,2,right,2.8
2,6,13,no,action,variable,,,0.8335878849029541,1.0,left,1,1,7.0,0.4445910453796386,0,,,0.16,2,right,1.0
2,6,14,no,action,variable,,,1.134670972824097,2.8,left,1,1,7.0,0.4407970905303955,0,,,0.36,2,right,1.0
2,6,15,no,action,variable,,,0.8586010932922363,2.8,left,1,1,7.0,0.4682707786560058,0,,,0.19,2,right,2.8
2,6,16,no,action,variable,,,1.2602169513702393,2.8,right,1,1,8.0,0.4980669021606445,0,,,0.23,2,right,2.8
2,6,17,no,action,variable,,,0.5861630439758301,1.0,right,1,1,8.0,0.4876940250396728,0,,,0.19,2,right,2.8
2,6,18,no,action,variable,,,0.5977880954742432,2.8,right,1,1,8.0,0.4961810111999511,0,,,0.79,2,right,1.0
2,6,19,no,action,variable,,,0.6215920448303223,1.0,right,1,1,8.0,0.4480769634246826,0,,,0.28,2,right,2.8
2,6,20,no,action,variable,,,0.5800399780273438,2.8,right,1,1,8.0,0.5097510814666748,0,,,0.19,2,right,1.0
2,6,21,no,action,variable,,,0.7438819408416748,2.8,right,1,1,8.0,0.450153112411499,0,,,0.19,2,right,2.8
2,6,22,no,action,variable,,,1.3484501838684082,1.0,right,1,1,8.0,0.4666938781738281,0,,,0.45,2,right,2.8
2,6,23,no,action,variable,,,0.7266421318054199,2.8,left,1,1,7.0,0.4039921760559082,0,,,0.35,2,right,1.0
2,6,24,no,action,variable,,,0.6457619667053223,1.0,left,1,1,7.0,0.4822731018066406,0,,,0.33,2,right,2.8
2,6,25,no,action,variable,,,0.5761439800262451,2.8,right,1,1,8.0,0.4237730503082275,0,,,0.2,2,right,1.0
2,6,26,no,action,variable,,,0.8117280006408691,1.0,left,1,1,7.0,0.4226129055023193,0,,,0.22,2,right,2.8
2,6,27,no,action,variable,,,0.5454070568084717,1.0,left,1,1,7.0,0.3269801139831543,0,,,0.33,2,right,1.0
2,6,28,no,action,variable,,,0.5486810207366943,2.8,left,1,1,7.0,0.409632921218872,0,,,0.31,2,right,1.0
2,6,29,no,action,variable,,,1.2459721565246582,2.8,left,1,1,7.0,0.3696279525756836,0,,,0.26,2,right,2.8
2,6,30,no,action,variable,,,0.497560977935791,2.8,right,1,1,8.0,0.5570600032806396,0,,,0.3,2,right,2.8
2,6,31,no,action,variable,,,1.1311039924621582,2.8,left,1,1,7.0,0.4480040073394775,0,,,0.31,2,right,2.8
2,6,32,no,action,variable,,,0.633842945098877,1.0,right,1,1,8.0,0.4303131103515625,0,,,0.49,2,right,2.8
2,6,33,no,action,variable,,,0.7621409893035889,1.0,left,1,1,7.0,0.3362989425659179,0,,,0.56,2,right,1.0
2,6,34,no,action,variable,,,0.6058728694915771,2.8,right,1,1,8.0,0.3974800109863281,0,,,0.26,2,right,1.0
2,6,35,no,action,variable,,,1.2295079231262207,2.8,left,1,1,7.0,0.3997571468353271,0,,,0.38,2,right,2.8
2,6,36,no,action,variable,,,0.8795709609985352,1.0,left,1,1,7.0,0.4056971073150635,0,,,0.35,2,right,2.8
2,6,37,no,action,variable,,,0.6575400829315186,1.0,right,1,1,8.0,0.4093430042266845,0,,,0.33,2,right,1.0
2,6,38,no,action,variable,,,0.5852499008178711,2.8,right,1,1,8.0,0.4437220096588135,0,,,0.21,2,right,1.0
2,6,39,no,action,variable,,,0.6985819339752197,2.8,left,1,1,7.0,0.3821358680725097,0,,,0.74,2,right,2.8
2,6,40,no,action,variable,,,0.5116760730743408,1.0,right,1,1,8.0,0.3622801303863525,0,,,0.28,2,right,2.8
2,6,41,no,action,variable,,,0.8183519840240479,2.8,right,1,1,8.0,0.3961648941040039,0,,,0.27,2,right,1.0
2,6,42,no,action,variable,,,0.9802851676940918,1.0,right,1,1,8.0,0.4243910312652588,0,,,0.28,2,right,2.8
2,6,43,no,action,variable,,,0.650305986404419,1.0,left,1,1,7.0,0.437283992767334,0,,,0.2,2,right,1.0
2,6,44,no,action,variable,,,0.5772380828857422,1.0,right,1,1,8.0,0.3821399211883545,0,,,0.33,2,right,1.0
2,6,45,no,action,variable,,,0.6920199394226074,1.0,right,1,1,8.0,0.3893389701843261,0,,,0.51,2,right,1.0
2,6,46,no,action,variable,,,0.5968549251556396,1.0,left,1,1,7.0,0.394834041595459,0,,,0.58,2,right,1.0
2,6,47,no,action,variable,,,0.6424708366394043,1.0,right,1,1,8.0,0.3558390140533447,0,,,0.5,2,right,1.0
2,6,48,no,action,variable,,,0.579899787902832,1.0,right,1,1,8.0,0.4110419750213623,0,,,0.2,2,right,1.0
2,6,49,no,action,variable,,,0.6572608947753906,2.8,left,1,1,7.0,0.4447860717773437,0,,,0.28,2,right,1.0
2,6,50,no,action,variable,,,0.7086730003356934,2.8,left,1,1,7.0,0.3771510124206543,0,,,0.23,2,right,2.8
2,6,51,no,action,variable,,,0.7452521324157715,1.0,right,1,1,8.0,0.4383280277252197,0,,,0.5,2,right,2.8
2,6,52,no,action,variable,,,0.5379648208618164,2.8,left,1,1,7.0,0.3570599555969238,0,,,0.26,2,right,1.0
2,6,53,no,action,variable,,,0.7209880352020264,1.0,right,1,1,8.0,0.4413480758666992,0,,,0.19,2,right,2.8
2,6,54,no,action,variable,,,0.5275969505310059,2.8,left,1,1,7.0,0.3890430927276611,0,,,0.41,2,right,1.0
2,6,55,no,action,variable,,,0.3648760318756103,1.0,left,1,1,7.0,0.4301490783691406,0,,,0.62,2,right,2.8
2,7,0,no,action,constant,short,,3.3225700855255127,1.0,left,1,1,7.0,0.4364399909973144,0,,,0.49,2,right,
2,7,1,no,action,constant,short,,0.7481379508972168,1.0,right,1,1,8.0,0.4110419750213623,0,,,0.26,2,right,1.0
2,7,2,no,action,constant,short,,0.4751121997833252,1.0,right,0,1,7.0,0.5936539173126221,0,,,0.46,2,right,1.0
2,7,3,no,action,constant,short,,0.7175970077514648,1.0,left,1,1,7.0,0.364501953125,0,,,0.17,2,right,1.0
2,7,4,no,action,constant,short,,0.7646670341491699,1.0,left,1,1,7.0,0.4493567943572998,0,,,0.25,2,right,1.0
2,7,5,no,action,constant,short,,0.751410961151123,1.0,left,1,1,7.0,0.4273641109466553,0,,,0.61,2,right,1.0
2,7,6,no,action,constant,short,,0.5070669651031494,1.0,right,1,1,8.0,0.4066720008850097,0,,,0.69,2,right,1.0
2,7,7,no,action,constant,short,,0.4422688484191894,1.0,right,1,1,8.0,0.3753039836883545,0,,,0.31,2,right,1.0
2,7,8,no,action,constant,short,,0.8051919937133789,1.0,left,1,1,7.0,0.3647079467773437,0,,,0.37,2,right,1.0
2,7,9,no,action,constant,short,,0.4926011562347412,1.0,right,1,1,8.0,0.3721950054168701,0,,,0.31,2,right,1.0
2,7,10,no,action,constant,short,,0.5542631149291992,1.0,right,1,1,8.0,0.4414420127868652,0,,,0.23,2,right,1.0
2,7,11,no,action,constant,short,,0.6896090507507324,1.0,left,1,1,7.0,0.4130749702453613,0,,,0.21,2,right,1.0
2,7,12,no,action,constant,short,,0.5230648517608643,1.0,left,1,1,7.0,0.3975229263305664,0,,,0.31,2,right,1.0
2,7,13,no,action,constant,short,,0.5715048313140869,1.0,left,1,1,7.0,0.704401969909668,0,,,0.4,2,right,1.0
2,7,14,no,action,constant,short,,0.7043509483337402,1.0,right,1,1,8.0,0.4283101558685303,0,,,0.17,2,right,1.0
2,7,15,no,action,constant,short,,0.5783770084381104,1.0,right,1,1,8.0,0.4722330570220947,0,,,0.16,2,right,1.0
2,7,16,no,action,constant,short,,0.6303129196166992,1.0,right,1,1,8.0,0.626474142074585,0,,,0.54,2,right,1.0
2,7,17,no,action,constant,short,,0.7682290077209473,1.0,right,1,1,8.0,0.4643740653991699,0,,,0.19,2,right,1.0
2,7,18,no,action,constant,short,,0.5962791442871094,1.0,left,1,1,7.0,0.3948631286621094,0,,,0.67,2,right,1.0
2,7,19,no,action,constant,short,,0.5326011180877686,1.0,right,1,1,8.0,0.3229169845581054,0,,,0.28,2,right,1.0
2,7,20,no,action,constant,short,,0.9468510150909424,1.0,left,1,1,7.0,0.2537429332733154,0,,,0.21,2,right,1.0
2,7,21,no,action,constant,short,,0.5658791065216064,1.0,left,1,1,7.0,0.45088791847229,0,,,0.38,2,right,1.0
2,7,22,no,action,constant,short,,0.616797924041748,1.0,left,1,1,7.0,0.4131391048431396,0,,,0.43,2,right,1.0
2,7,23,no,action,constant,short,,0.5068309307098389,1.0,left,1,1,7.0,0.3937020301818847,0,,,0.16,2,right,1.0
2,7,24,no,action,constant,short,,0.4878270626068115,1.0,left,1,1,7.0,0.4158170223236084,0,,,0.48,2,right,1.0
2,7,25,no,action,constant,short,,0.5095880031585693,1.0,left,1,1,7.0,0.4259889125823974,0,,,0.57,2,right,1.0
2,7,26,no,action,constant,short,,0.4857778549194336,1.0,right,1,1,8.0,0.513031005859375,0,,,0.4,2,right,1.0
2,7,27,no,action,constant,short,,0.6474897861480713,1.0,left,1,1,7.0,0.5935909748077393,0,,,0.32,2,right,1.0
2,7,28,no,action,constant,short,,0.5256061553955078,1.0,left,1,1,7.0,0.9698410034179688,0,,,0.24,2,right,1.0
2,7,29,no,action,constant,short,,0.5478568077087402,1.0,left,1,1,7.0,0.4027540683746338,0,,,0.45,2,right,1.0
2,7,30,no,action,constant,short,,0.5524492263793945,1.0,right,1,1,8.0,0.3666679859161377,0,,,0.47,2,right,1.0
2,7,31,no,action,constant,short,,0.5664541721343994,1.0,right,1,1,8.0,0.481374979019165,0,,,0.54,2,right,1.0
2,7,32,no,action,constant,short,,0.867041826248169,1.0,left,1,1,7.0,0.3189749717712402,0,,,0.35,2,right,1.0
2,7,33,no,action,constant,short,,0.9710028171539308,1.0,left,1,1,7.0,0.3803520202636719,0,,,0.31,2,right,1.0
2,7,34,no,action,constant,short,,0.5540869235992432,1.0,right,1,1,8.0,0.4774398803710937,0,,,0.44,2,right,1.0
2,7,35,no,action,constant,short,,0.5513970851898193,1.0,right,1,1,8.0,0.3719711303710937,0,,,0.38,2,right,1.0
2,7,36,no,action,constant,short,,0.5355010032653809,1.0,left,1,1,7.0,0.3753318786621094,0,,,0.16,2,right,1.0
2,7,37,no,action,constant,short,,0.3872451782226562,1.0,right,1,1,8.0,0.3072001934051513,0,,,0.54,2,right,1.0
2,7,38,no,action,constant,short,,0.4989650249481201,1.0,right,1,1,8.0,0.3977940082550049,0,,,0.26,2,right,1.0
2,7,39,no,action,constant,short,,0.7316780090332031,1.0,right,1,1,8.0,0.414119005203247,0,,,0.24,2,right,1.0
2,7,40,no,action,constant,short,,0.5660979747772217,1.0,right,1,1,8.0,0.415503978729248,0,,,0.62,2,right,1.0
2,7,41,no,action,constant,short,,0.5190041065216064,1.0,left,1,1,7.0,0.3897249698638916,0,,,0.3,2,right,1.0
2,7,42,no,action,constant,short,,0.7117829322814941,1.0,left,1,1,7.0,0.3356940746307373,0,,,0.22,2,right,1.0
2,7,43,no,action,constant,short,,0.5807540416717529,1.0,right,1,1,8.0,0.3536961078643799,0,,,0.52,2,right,1.0
2,7,44,no,action,constant,short,,0.6773061752319336,1.0,left,1,1,7.0,0.3254868984222412,0,,,0.37,2,right,1.0
2,7,45,no,action,constant,short,,0.5856039524078369,1.0,right,1,1,8.0,0.3412849903106689,0,,,0.25,2,right,1.0
2,7,46,no,action,constant,short,,0.5954000949859619,1.0,right,1,1,8.0,0.403778076171875,0,,,0.28,2,right,1.0
2,7,47,no,action,constant,short,,0.6654350757598877,1.0,right,0,1,7.0,0.3081119060516357,0,,,0.41,2,right,1.0
2,7,48,no,action,constant,short,,0.7777919769287109,1.0,left,1,1,7.0,0.5366299152374268,0,,,0.41,2,right,1.0
2,7,49,no,action,constant,short,,0.5421509742736816,1.0,right,1,1,8.0,0.3145010471343994,0,,,0.64,2,right,1.0
2,7,50,no,action,constant,short,,0.6081149578094482,1.0,left,1,1,7.0,0.3387279510498047,0,,,0.16,2,right,1.0
2,7,51,no,action,constant,short,,0.6809210777282715,1.0,right,1,1,8.0,0.4491109848022461,0,,,0.22,2,right,1.0
2,7,52,no,action,constant,short,,0.5467050075531006,1.0,right,1,1,8.0,0.3560769557952881,0,,,0.5,2,right,1.0
2,7,53,no,action,constant,short,,0.5298001766204834,1.0,left,1,1,7.0,0.3554549217224121,0,,,0.39,2,right,1.0
2,7,54,no,action,constant,short,,0.6689221858978271,1.0,right,1,1,8.0,0.3651571273803711,0,,,0.37,2,right,1.0
2,7,55,no,action,constant,short,,1.650691032409668,1.0,left,1,1,7.0,0.3542301654815674,0,,,0.65,2,right,1.0
3,0,0,no,action,variable,,,1.5496129989624023,1.0,left,1,1,7.0,0.3795349597930908,0,,,0.33,3,right,
3,0,1,no,action,variable,,,0.7673218250274658,1.0,left,1,1,7.0,0.3898231983184814,0,,,0.32,3,right,1.0
3,0,2,no,action,variable,,,0.8596341609954834,2.8,right,1,1,8.0,0.362778902053833,0,,,0.17,3,right,1.0
3,0,3,no,action,variable,,,0.4448938369750976,1.0,left,1,1,7.0,0.4122998714447021,0,,,0.17,3,right,2.8
3,0,4,no,action,variable,,,0.3744089603424072,2.8,right,1,1,8.0,0.3586180210113525,0,,,0.21,3,right,1.0
3,0,5,no,action,variable,,,0.626533031463623,2.8,right,1,1,8.0,0.457280158996582,0,,,0.2,3,right,2.8
3,0,6,no,action,variable,,,0.6414220333099365,1.0,left,1,1,7.0,0.501492977142334,0,,,0.21,3,right,2.8
3,0,7,no,action,variable,,,0.5016281604766846,2.8,left,1,1,7.0,0.493190050125122,0,,,0.31,3,right,1.0
3,0,8,no,action,variable,,,0.5831940174102783,2.8,right,1,1,8.0,0.3275470733642578,0,,,0.56,3,right,2.8
3,0,9,no,action,variable,,,0.4508869647979736,1.0,left,1,1,7.0,0.4671249389648437,0,,,0.26,3,right,2.8
3,0,10,no,action,variable,,,0.5411019325256348,2.8,right,1,1,8.0,0.3411018848419189,0,,,0.19,3,right,1.0
3,0,11,no,action,variable,,,0.5472979545593262,2.8,left,1,1,7.0,0.3298921585083008,0,,,0.17,3,right,2.8
3,0,12,no,action,variable,,,0.6958980560302734,1.0,left,1,1,7.0,0.7291281223297119,0,,,0.58,3,right,2.8
3,0,13,no,action,variable,,,0.6088540554046631,1.0,right,1,1,8.0,0.4515180587768554,0,,,0.2,3,right,1.0
3,0,14,no,action,variable,,,0.6157238483428955,2.8,left,1,1,7.0,0.3830289840698242,0,,,0.32,3,right,1.0
3,0,15,no,action,variable,,,0.5627200603485107,1.0,right,1,1,8.0,0.5496339797973633,0,,,0.4,3,right,2.8
3,0,16,no,action,variable,,,0.4713330268859863,1.0,left,1,1,7.0,0.4768259525299072,0,,,0.36,3,right,1.0
3,0,17,no,action,variable,,,0.5028741359710693,1.0,right,1,1,8.0,0.5224230289459229,0,,,0.37,3,right,1.0
3,0,18,no,action,variable,,,0.5785238742828369,1.0,right,0,1,7.0,0.4106371402740478,0,,,0.34,3,right,1.0
3,0,19,no,action,variable,,,0.5764830112457275,1.0,right,1,1,8.0,0.4159719944000244,0,,,0.58,3,right,1.0
3,0,20,no,action,variable,,,0.639611005783081,2.8,left,1,1,7.0,0.4391369819641113,0,,,0.47,3,right,1.0
3,0,21,no,action,variable,,,0.4048290252685547,2.8,right,1,1,8.0,0.382253885269165,0,,,0.26,3,right,2.8
3,0,22,no,action,variable,,,0.4699490070343017,2.8,left,1,1,7.0,0.4611051082611084,0,,,0.5,3,right,2.8
3,0,23,no,action,variable,,,0.5246520042419434,2.8,right,1,1,8.0,0.4401271343231201,0,,,0.21,3,right,2.8
3,0,24,no,action,variable,,,0.512160062789917,2.8,right,1,1,8.0,0.3274719715118408,0,,,0.73,3,right,2.8
3,0,25,no,action,variable,,,0.6889188289642334,2.8,right,1,1,8.0,0.398892879486084,0,,,0.19,3,right,2.8
3,0,26,no,action,variable,,,0.8309249877929688,2.8,left,1,1,7.0,0.5281548500061035,0,,,0.24,3,right,2.8
3,0,27,no,action,variable,,,0.9460761547088624,2.8,left,1,1,7.0,0.5627820491790771,0,,,0.2,3,right,2.8
3,0,28,no,action,variable,,,0.6868100166320801,1.0,left,1,1,7.0,0.4494080543518066,0,,,0.18,3,right,2.8
3,0,29,no,action,variable,,,0.511322021484375,2.8,right,1,1,8.0,0.4037151336669922,0,,,0.56,3,right,1.0
3,0,30,no,action,variable,,,0.4234700202941894,1.0,right,1,1,8.0,0.4184651374816894,0,,,0.19,3,right,2.8
3,0,31,no,action,variable,,,0.4304590225219726,1.0,left,1,1,7.0,0.4058151245117187,0,,,0.2,3,right,1.0
3,0,32,no,action,variable,,,0.4379899501800537,1.0,right,1,1,8.0,0.3764650821685791,0,,,0.45,3,right,1.0
3,0,33,no,action,variable,,,0.5763449668884277,2.8,right,1,1,8.0,0.4475958347320556,0,,,0.18,3,right,1.0
3,0,34,no,action,variable,,,0.6717360019683838,2.8,right,1,1,8.0,0.4315040111541748,0,,,0.61,3,right,2.8
3,0,35,no,action,variable,,,0.7250461578369141,1.0,left,1,1,7.0,0.4862158298492431,0,,,0.19,3,right,2.8
3,0,36,no,action,variable,,,0.835291862487793,1.0,left,1,1,7.0,0.488243818283081,0,,,0.4,3,right,1.0
3,0,37,no,action,variable,,,0.7888610363006592,1.0,right,1,1,8.0,0.4737281799316406,0,,,0.5,3,right,1.0
3,0,38,no,action,variable,,,0.5614650249481201,2.8,right,1,1,8.0,0.3814051151275635,0,,,0.43,3,right,1.0
3,0,39,no,action,variable,,,0.7134029865264893,2.8,right,1,1,8.0,0.4197638034820556,0,,,0.38,3,right,2.8
3,0,40,no,action,variable,,,0.7275650501251221,1.0,left,1,1,7.0,0.4894900321960449,0,,,0.28,3,right,2.8
3,0,41,no,action,variable,,,0.6474530696868896,2.8,right,1,1,8.0,0.4625449180603027,0,,,0.62,3,right,1.0
3,0,42,no,action,variable,,,0.5161769390106201,1.0,right,1,1,8.0,0.4491770267486572,0,,,0.16,3,right,2.8
3,0,43,no,action,variable,,,0.7271900177001953,1.0,left,1,1,7.0,0.4437828063964844,0,,,0.26,3,right,1.0
3,0,44,no,action,variable,,,0.7277929782867432,1.0,left,1,1,7.0,0.4804821014404297,0,,,0.18,3,right,1.0
3,0,45,no,action,variable,,,0.5165820121765137,2.8,left,1,1,7.0,0.4527561664581299,0,,,0.34,3,right,1.0
3,0,46,no,action,variable,,,0.7145471572875977,2.8,right,1,1,8.0,0.4867651462554931,0,,,0.16,3,right,2.8
3,0,47,no,action,variable,,,0.684715986251831,1.0,left,1,1,7.0,0.4811680316925049,0,,,0.21,3,right,2.8
3,0,48,no,action,variable,,,0.5271360874176025,1.0,left,1,1,7.0,0.4817640781402588,0,,,0.2,3,right,1.0
3,0,49,no,action,variable,,,0.6596701145172119,2.8,right,1,1,8.0,0.4834070205688476,0,,,0.2,3,right,1.0
3,0,50,no,action,variable,,,0.6935751438140869,1.0,right,1,1,8.0,0.4877500534057617,0,,,0.54,3,right,2.8
3,0,51,no,action,variable,,,0.6593341827392578,1.0,left,1,1,7.0,0.4898328781127929,0,,,0.31,3,right,1.0
3,0,52,no,action,variable,,,0.665722131729126,2.8,left,1,1,7.0,0.4107539653778076,0,,,0.19,3,right,1.0
3,0,53,no,action,variable,,,0.4810521602630615,2.8,left,1,1,7.0,0.4382200241088867,0,,,0.68,3,right,2.8
3,0,54,no,action,variable,,,0.6777880191802979,1.0,right,1,1,8.0,0.4878621101379394,0,,,0.16,3,right,2.8
3,0,55,no,action,variable,,,0.6579930782318115,2.8,left,1,1,7.0,0.4211699962615967,0,,,0.29,3,right,1.0
3,1,0,no,action,constant,long,,0.6568140983581543,2.8,right,1,1,8.0,0.4370491504669189,0,,,0.58,3,right,
3,1,1,no,action,constant,long,,0.398616075515747,2.8,left,1,1,7.0,0.4700150489807129,0,,,0.27,3,right,2.8
3,1,2,no,action,constant,long,,0.3561100959777832,2.8,right,1,1,8.0,0.4311408996582031,0,,,0.28,3,right,2.8
3,1,3,no,action,constant,long,,0.3490121364593506,2.8,left,1,1,7.0,0.3780899047851562,0,,,0.38,3,right,2.8
3,1,4,no,action,constant,long,,0.3980600833892822,2.8,left,1,1,7.0,0.5071201324462891,0,,,0.73,3,right,2.8
3,1,5,no,action,constant,long,,0.3985128402709961,2.8,left,1,1,7.0,0.4060587882995605,0,,,0.31,3,right,2.8
3,1,6,no,action,constant,long,,0.4420208930969238,2.8,right,1,1,8.0,0.4501290321350097,0,,,0.31,3,right,2.8
3,1,7,no,action,constant,long,,0.3879737854003906,2.8,right,1,1,8.0,0.4401588439941406,0,,,0.34,3,right,2.8
3,1,8,no,action,constant,long,,0.4178550243377685,2.8,left,1,1,7.0,0.4157679080963135,0,,,0.2,3,right,2.8
3,1,9,no,action,constant,long,,0.6397008895874023,2.8,right,1,1,8.0,0.4041459560394287,0,,,0.18,3,right,2.8
3,1,10,no,action,constant,long,,0.5661838054656982,2.8,left,1,1,7.0,0.3624830245971679,0,,,0.2,3,right,2.8
3,1,11,no,action,constant,long,,0.7105779647827148,2.8,right,1,1,8.0,0.3621919155120849,0,,,0.19,3,right,2.8
3,1,12,no,action,constant,long,,0.6281740665435791,2.8,left,1,1,7.0,0.4955091476440429,0,,,0.36,3,right,2.8
3,1,13,no,action,constant,long,,0.6953799724578857,2.8,right,1,1,8.0,0.3935151100158691,0,,,0.3,3,right,2.8
3,1,14,no,action,constant,long,,0.5814719200134277,2.8,right,1,1,8.0,0.6461710929870605,0,,,0.49,3,right,2.8
3,1,15,no,action,constant,long,,0.6617751121520996,2.8,right,1,1,8.0,0.4840340614318847,0,,,0.36,3,right,2.8
3,1,16,no,action,constant,long,,0.3900570869445801,2.8,left,1,1,7.0,0.3941068649291992,0,,,0.17,3,right,2.8
3,1,17,no,action,constant,long,,0.5600700378417969,2.8,right,1,1,8.0,0.4190609455108642,0,,,0.7,3,right,2.8
3,1,18,no,action,constant,long,,0.5506329536437988,2.8,right,1,1,8.0,0.361030101776123,0,,,0.22,3,right,2.8
3,1,19,no,action,constant,long,,0.47918701171875,2.8,right,1,1,8.0,0.4391050338745117,0,,,0.45,3,right,2.8
3,1,20,no,action,constant,long,,0.3790211677551269,2.8,left,1,1,7.0,0.3880119323730469,0,,,0.18,3,right,2.8
3,1,21,no,action,constant,long,,0.905992031097412,2.8,left,1,1,7.0,0.3667440414428711,0,,,0.22,3,right,2.8
3,1,22,no,action,constant,long,,0.650601863861084,2.8,right,1,1,8.0,0.3881340026855469,0,,,0.69,3,right,2.8
3,1,23,no,action,constant,long,,0.7276711463928223,2.8,left,1,1,7.0,0.3453748226165771,0,,,0.54,3,right,2.8
3,1,24,no,action,constant,long,,0.8230600357055664,2.8,right,1,1,8.0,0.3790950775146484,0,,,0.24,3,right,2.8
3,1,25,no,action,constant,long,,0.984990119934082,2.8,left,1,1,7.0,0.3900799751281738,0,,,0.37,3,right,2.8
3,1,26,no,action,constant,long,,0.5679841041564941,2.8,left,1,1,7.0,0.4067070484161377,0,,,0.26,3,right,2.8
3,1,27,no,action,constant,long,,0.7226691246032715,2.8,right,1,1,8.0,0.3514068126678467,0,,,0.51,3,right,2.8
3,1,28,no,action,constant,long,,0.6371519565582275,2.8,left,1,1,7.0,0.4256651401519775,0,,,0.64,3,right,2.8
3,1,29,no,action,constant,long,,0.468768835067749,2.8,right,1,1,8.0,0.4415209293365478,0,,,0.37,3,right,2.8
3,1,30,no,action,constant,long,,0.4731709957122803,2.8,right,1,1,8.0,0.4816980361938476,0,,,0.25,3,right,2.8
3,1,31,no,action,constant,long,,0.4955289363861084,2.8,left,1,1,7.0,0.3980410099029541,0,,,0.4,3,right,2.8
3,1,32,no,action,constant,long,,0.3958590030670166,2.8,right,1,1,8.0,0.3384280204772949,0,,,0.22,3,right,2.8
3,1,33,no,action,constant,long,,0.3902649879455566,2.8,left,1,1,7.0,0.346099853515625,0,,,0.23,3,right,2.8
3,1,34,no,action,constant,long,,0.3740289211273193,2.8,left,1,1,7.0,0.4801268577575683,0,,,0.32,3,right,2.8
3,1,35,no,action,constant,long,,0.3877918720245361,2.8,left,1,1,7.0,0.3956799507141113,0,,,0.37,3,right,2.8
3,1,36,no,action,constant,long,,0.3635871410369873,2.8,left,1,1,7.0,0.4004178047180176,0,,,0.44,3,right,2.8
3,1,37,no,action,constant,long,,0.3880748748779297,2.8,left,1,1,7.0,0.4132990837097168,0,,,0.43,3,right,2.8
3,1,38,no,action,constant,long,,0.4449870586395263,2.8,right,1,1,8.0,0.3063399791717529,0,,,0.41,3,right,2.8
3,1,39,no,action,constant,long,,0.3618819713592529,2.8,left,1,1,7.0,0.4096260070800781,0,,,0.43,3,right,2.8
3,1,40,no,action,constant,long,,0.4253630638122558,2.8,right,1,1,8.0,0.4537310600280761,0,,,0.56,3,right,2.8
3,1,41,no,action,constant,long,,0.4013369083404541,2.8,right,1,1,8.0,0.4073438644409179,0,,,0.42,3,right,2.8
