participant,block,trial,practice,condition,FPType,conFPDur,extFixDur,actionTrigLatency,FP,orientation,Acc,responseGiven,response,RT,preRespGiven,preResp,preTime,ITI,countBalance,handedness,oneBackFP,condTestPos,numFP,numOneBackFP,squaredNumFP,seqOri,prevOri,numLogFP,logFP,logOneBackFP,logRT,invRT,RTzscore,logRTzscore,scaledNumFP,squaredScaledNumFP,scaledNumOneBackFP
1,0,1,no,action,constant,short,NA,0.8980660438537598,1,right,1,1,8,0.6454908847808838,0,NA,NA,0.32,1,right,1,1,1,1,1,same,right,0,0,0,-0.19010988618968241,1.5492085536412443,1.6194562014698268,1.6081875272188373,-0.902093023255814,0.8137718226068146,-0.8968347010550997
1,0,2,no,action,constant,short,NA,0.749351978302002,1,left,1,1,7,0.7188811302185059,0,NA,NA,0.48,1,right,1,1,1,1,1,different,right,0,0,0,-0.14334291595659931,1.3910505617194977,2.3191944602810133,2.137825305904257,-0.902093023255814,0.8137718226068146,-0.8968347010550997
1,0,3,no,action,constant,short,NA,0.7868359088897705,1,left,1,1,7,0.536247968673706,0,NA,NA,0.47,1,right,1,1,1,1,1,same,left,0,0,0,-0.27063433992697933,1.8648089287373615,0.5778811604207493,0.6962449191191388,-0.902093023255814,0.8137718226068146,-0.8968347010550997
1,0,4,no,action,constant,short,NA,1.7297439575195313,1,left,1,1,7,0.58036208152771,0,NA,NA,0.17,1,right,1,1,1,1,1,same,left,0,0,0,-0.2363009703232657,1.7230622603180081,0.9984865465097954,1.0850716812777188,-0.902093023255814,0.8137718226068146,-0.8968347010550997
1,0,5,no,action,constant,short,NA,1.3142919540405271,1,right,1,1,8,0.5589110851287842,0,NA,NA,0.5,1,right,1,1,1,1,1,different,left,0,0,0,-0.25265727674566113,1.7891933558082502,0.7939623242450373,0.8998358672431503,-0.902093023255814,0.8137718226068146,-0.8968347010550997
1,0,6,no,action,constant,short,NA,0.866581916809082,1,left,1,1,7,0.4263019561767578,0,NA,NA,0.39,1,right,1,1,1,1,1,different,right,0,0,0,-0.37028267449614166,2.3457551285206146,-0.47039754322845667,-0.43227639213693353,-0.902093023255814,0.8137718226068146,-0.8968347010550997
1,0,7,no,action,constant,short,NA,0.7779738903045654,1,left,1,1,7,0.4275820255279541,0,NA,NA,0.4,1,right,1,1,1,1,1,same,left,0,0,0,-0.36898055972635396,2.338732547901789,-0.4581927400748146,-0.4175298911165195,-0.902093023255814,0.8137718226068146,-0.8968347010550997
1,0,8,no,action,constant,short,NA,0.761491060256958,1,left,1,1,7,0.4074230194091797,0,NA,NA,0.16,1,right,1,1,1,1,1,same,left,0,0,0,-0.38995443699526305,2.4544513990646375,-0.6503984992571389,-0.6550598767401637,-0.902093023255814,0.8137718226068146,-0.8968347010550997
1,0,9,no,action,constant,short,NA,0.611234188079834,1,right,1,1,8,0.4525160789489746,0,NA,NA,0.78,1,right,1,1,1,1,1,different,left,0,0,0,-0.34436598469137036,2.2098662269031975,-0.22045935981572665,-0.13876885999049593,-0.902093023255814,0.8137718226068146,-0.8968347010550997
1,0,10,no,action,constant,short,NA,0.5420408248901367,1,left,1,1,7,0.5337009429931641,0,NA,NA,0.19,1,right,1,1,1,1,1,different,right,0,0,0,-0.2727020298432819,1.8737085124708288,0.553596580035136,0.6728282494306235,-0.902093023255814,0.8137718226068146,-0.8968347010550997
1,0,11,no,action,constant,short,NA,0.6136360168457031,1,left,1,1,7,0.4234988689422607,0,NA,NA,0.49,1,right,1,1,1,1,1,same,left,0,0,0,-0.3731477452218005,2.3612813949128606,-0.49712353888451416,-0.4647234308771323,-0.902093023255814,0.8137718226068146,-0.8968347010550997
1,0,12,no,action,constant,short,NA,0.5311851501464844,1,left,1,1,7,0.4250960350036621,0,NA,NA,0.34,1,right,1,1,1,1,1,same,left,0,0,0,-0.37151294580695615,2.352409614903572,-0.481895381625015,-0.44620926315664405,-0.902093023255814,0.8137718226068146,-0.8968347010550997
1,0,13,no,action,constant,short,NA,0.432905912399292,1,right,1,1,8,0.4818391799926758,0,NA,NA,0.32,1,right,1,1,1,1,1,different,left,0,0,0,-0.3170978889312811,2.075381250680363,0.059121333025852825,0.17004339779263747,-0.902093023255814,0.8137718226068146,-0.8968347010550997
1,0,14,no,action,constant,short,NA,0.4737257957458496,1,left,1,1,7,0.4984989166259765,0,NA,NA,0.7,1,right,1,1,1,1,1,different,right,0,0,0,-0.3023357811915863,2.0060224137865066,0.21796335671069014,0.3372248489963318,-0.902093023255814,0.8137718226068146,-0.8968347010550997
1,0,15,no,action,constant,short,NA,0.3957960605621338,1,right,1,1,8,0.5149128437042236,0,NA,NA,0.21,1,right,1,1,1,1,1,different,left,0,0,0,-0.2882662752337397,1.9420762411093018,0.3744617126638457,0.4965625577590805,-0.902093023255814,0.8137718226068146,-0.8968347010550997
1,0,16,no,action,constant,short,NA,0.6124999523162842,1,left,1,1,7,0.3598001003265381,0,NA,NA,0.34,1,right,1,1,1,1,1,different,right,0,0,0,-0.44393871989192435,2.7793210704845435,-1.1044585487867047,-1.2664340054214103,-0.902093023255814,0.8137718226068146,-0.8968347010550997
1,0,17,no,action,constant,short,NA,0.5857291221618652,1,left,1,1,7,0.4287219047546386,0,NA,NA,0.2,1,right,1,1,1,1,1,same,left,0,0,0,-0.36782432644729746,2.3325143616636734,-0.4473245776837622,-0.4044355037206808,-0.902093023255814,0.8137718226068146,-0.8968347010550997
1,0,18,no,action,constant,short,NA,0.5948119163513184,1,left,1,1,7,0.3808820247650146,0,NA,NA,0.26,1,right,1,1,1,1,1,same,left,0,0,0,-0.41920952282230944,2.625484887655044,-0.9034532379173351,-0.9863748752415467,-0.902093023255814,0.8137718226068146,-0.8968347010550997
1,0,19,no,action,constant,short,NA,0.6988880634307861,1,right,1,1,8,0.362746000289917,0,NA,NA,0.18,1,right,1,1,1,1,1,different,left,0,0,0,-0.4403973674818041,2.756749899932105,-1.0763709071837242,-1.2263280499855473,-0.902093023255814,0.8137718226068146,-0.8968347010550997
1,0,20,no,action,constant,short,NA,0.5388801097869873,1,right,1,1,8,0.3818221092224121,0,NA,NA,0.27,1,right,1,1,1,1,1,same,right,0,0,0,-0.418138927604766,2.6190206796471758,-0.894490015932829,-0.9742503422631452,-0.902093023255814,0.8137718226068146,-0.8968347010550997
1,0,21,no,action,constant,short,NA,0.4917988777160644,1,left,1,1,7,0.3615190982818603,0,NA,NA,0.3,1,right,1,1,1,1,1,different,right,0,0,0,-0.44186875491346866,2.766105593736419,-1.0880687870549564,-1.2429915705644623,-0.902093023255814,0.8137718226068146,-0.8968347010550997
1,0,22,no,action,constant,short,NA,0.4593598842620849,1,left,1,1,7,0.4111838340759277,0,NA,NA,0.17,1,right,1,1,1,1,1,same,left,0,0,0,-0.3859639682093528,2.432002226564539,-0.6145410649219653,-0.6098676606707997,-0.902093023255814,0.8137718226068146,-0.8968347010550997
1,0,23,no,action,constant,short,NA,0.5193860530853271,1,right,1,1,8,0.3558769226074219,0,NA,NA,0.18,1,right,1,1,1,1,1,different,left,0,0,0,-0.44870017358425446,2.8099602319623544,-1.1418640313520205,-1.3203576559027332,-0.902093023255814,0.8137718226068146,-0.8968347010550997
1,0,24,no,action,constant,short,NA,0.3975470066070556,1,right,1,1,8,0.3927431106567383,0,NA,NA,0.16,1,right,1,1,1,1,1,same,right,0,0,0,-0.40589142444204285,2.5461936132445895,-0.7903638819682677,-0.8355468868710615,-0.902093023255814,0.8137718226068146,-0.8968347010550997
1,0,25,no,action,constant,short,NA,0.446674108505249,1,right,1,1,8,0.4081850051879883,0,NA,NA,0.17,1,right,1,1,1,1,1,same,right,0,0,0,-0.3891429532792468,2.4498695133091752,-0.6431333566087798,-0.6458697917154511,-0.902093023255814,0.8137718226068146,-0.8968347010550997
1,0,26,no,action,constant,short,NA,0.4544479846954345,1,left,1,1,7,0.3173549175262451,0,NA,NA,0.26,1,right,1,1,1,1,1,different,right,0,0,0,-0.4984547677518951,3.1510461781872356,-1.5091515448449266,-1.8838303932429492,-0.902093023255814,0.8137718226068146,-0.8968347010550997
1,0,27,no,action,constant,short,NA,0.461104154586792,1,left,1,1,7,0.5389020442962646,0,NA,NA,0.17,1,right,1,1,1,1,1,same,left,0,0,0,-0.2684901689278136,1.8556248034016438,0.6031864069669114,0.7205277400814531,-0.902093023255814,0.8137718226068146,-0.8968347010550997
1,0,28,no,action,constant,short,NA,0.4087488651275635,1,right,1,1,8,0.4315600395202636,0,NA,NA,0.2,1,right,1,1,1,1,1,different,left,0,0,0,-0.36495877580399677,2.317174688165366,-0.4202644218370579,-0.3719830298942981,-0.902093023255814,0.8137718226068146,-0.8968347010550997
1,0,29,no,action,constant,short,NA,0.5278408527374268,1,right,1,1,8,0.4166669845581054,0,NA,NA,0.37,1,right,1,1,1,1,1,same,right,0,0,0,-0.380210910371338,2.3999981689467096,-0.5622620440749806,-0.5447140542090445,-0.902093023255814,0.8137718226068146,-0.8968347010550997
1,0,30,no,action,constant,short,NA,0.4565529823303222,1,left,1,1,7,0.4179019927978515,0,NA,NA,0.19,1,right,1,1,1,1,1,different,right,0,0,0,-0.3789255578847375,2.392905554972365,-0.5504868754521707,-0.530157386705506,-0.902093023255814,0.8137718226068146,-0.8968347010550997
1,0,31,no,action,constant,short,NA,0.7039201259613037,1,right,1,1,8,0.4382448196411133,0,NA,NA,0.18,1,right,1,1,1,1,1,different,left,0,0,0,-0.3582832088669703,2.2818295965686906,-0.35652848016787936,-0.2963819715753348,-0.902093023255814,0.8137718226068146,-0.8968347010550997
1,0,32,no,action,constant,short,NA,0.4302399158477783,1,right,1,1,8,0.4099109172821045,0,NA,NA,0.76,1,right,1,1,1,1,1,same,right,0,0,0,-0.3873105148324703,2.4395544442447497,-0.6266776721183318,-0.6251173541790569,-0.902093023255814,0.8137718226068146,-0.8968347010550997
1,0,33,no,action,constant,short,NA,0.54917311668396,1,right,1,1,8,0.4696049690246582,0,NA,NA,0.39,1,right,1,1,1,1,1,same,right,0,0,0,-0.3282673163418471,2.129449358419143,-0.05752557869439117,0.0435491927278975,-0.902093023255814,0.8137718226068146,-0.8968347010550997
1,0,34,no,action,constant,short,NA,0.4692509174346924,1,left,1,1,7,0.3691210746765136,0,NA,NA,0.16,1,right,1,1,1,1,1,different,right,0,0,0,-0.43283115839569447,2.7091381896207616,-1.0155878504645526,-1.1406404342716323,-0.902093023255814,0.8137718226068146,-0.8968347010550997
1,0,35,no,action,constant,short,NA,0.4133200645446777,1,left,1,1,7,0.3301310539245605,0,NA,NA,0.25,1,right,1,1,1,1,1,same,left,0,0,0,-0.48131362164439584,3.0291000743859553,-1.3873376527618169,-1.6897062388824875,-0.902093023255814,0.8137718226068146,-0.8968347010550997
1,0,36,no,action,constant,short,NA,0.3999278545379638,1,right,1,1,8,0.4641249179840088,0,NA,NA,0.4,1,right,1,1,1,1,1,different,left,0,0,0,-0.3333651145104021,2.1545923548850583,-0.10977504795989003,-0.01418357218553526,-0.902093023255814,0.8137718226068146,-0.8968347010550997
1,0,37,no,action,constant,short,NA,0.425649881362915,1,right,1,1,8,0.4689719676971435,0,NA,NA,0.28,1,right,1,1,1,1,1,same,right,0,0,0,-0.32885311600195416,2.1323236118150843,-0.0635609209132257,0.036914988519511416,-0.902093023255814,0.8137718226068146,-0.8968347010550997
1,0,38,no,action,constant,short,NA,0.2668530941009521,1,right,1,1,8,0.4014480113983154,0,NA,NA,0.26,1,right,1,1,1,1,1,same,right,0,0,0,-0.39637068905217415,2.4909825721064625,-0.7073671287660656,-0.7277241838349215,-0.902093023255814,0.8137718226068146,-0.8968347010550997
1,0,39,no,action,constant,short,NA,0.4055900573730469,1,right,1,1,8,0.3607919216156006,0,NA,NA,0.21,1,right,1,1,1,1,1,same,right,0,0,0,-0.4427431951795549,2.771680683763847,-1.0950020427112435,-1.2528946409967516,-0.902093023255814,0.8137718226068146,-0.8968347010550997
1,0,40,no,action,constant,short,NA,0.4309010505676269,1,right,1,1,8,0.329035997390747,0,NA,NA,0.71,1,right,1,1,1,1,1,same,right,0,0,0,-0.4827565865091072,3.039181147138892,-1.3977784538206133,-1.7060478727719155,-0.902093023255814,0.8137718226068146,-0.8968347010550997
1,0,41,no,action,constant,short,NA,0.4505360126495361,1,left,1,1,7,0.3349809646606445,0,NA,NA,0.23,1,right,1,1,1,1,1,different,right,0,0,0,-0.4749798711056141,2.985244254141602,-1.341096247332242,-1.617976264727889,-0.902093023255814,0.8137718226068146,-0.8968347010550997
1,0,42,no,action,constant,short,NA,0.4108490943908691,1,right,1,1,8,0.3371109962463379,0,NA,NA,0.24,1,right,1,1,1,1,1,different,left,0,0,0,-0.47222708096696225,2.9663820259048084,-1.3207874912557582,-1.5868008080550227,-0.902093023255814,0.8137718226068146,-0.8968347010550997
1,0,43,no,action,constant,short,NA,0.4350159168243408,1,right,1,1,8,0.436176061630249,0,NA,NA,0.39,1,right,1,1,1,1,1,same,right,0,0,0,-0.3603381732075023,2.292652183300491,-0.37625302421037377,-0.3196545236173566,-0.902093023255814,0.8137718226068146,-0.8968347010550997
1,0,44,no,action,constant,short,NA,0.4319219589233398,1,right,1,1,8,0.3996589183807373,0,NA,NA,0.59,1,right,1,1,1,1,1,same,right,0,0,0,-0.3983104913133305,2.502133579432211,-0.7244252108791085,-0.7496925207951173,-0.902093023255814,0.8137718226068146,-0.8968347010550997
1,0,45,no,action,constant,short,NA,0.4151690006256103,1,right,1,1,8,0.3936719894409179,0,NA,NA,0.19,1,right,1,1,1,1,1,same,right,0,0,0,-0.4048654850421563,2.54018580651413,-0.7815075003168267,-0.8239280827853229,-0.902093023255814,0.8137718226068146,-0.8968347010550997
1,0,46,no,action,constant,short,NA,0.4737269878387451,1,left,1,1,7,0.3471689224243164,0,NA,NA,0.28,1,right,1,1,1,1,1,different,right,0,0,0,-0.45945915856383707,2.880442157716471,-1.2248903361357089,-1.442203584281153,-0.902093023255814,0.8137718226068146,-0.8968347010550997
1,0,47,no,action,constant,short,NA,0.3112611770629883,1,left,1,1,7,0.3815531730651855,0,NA,NA,0.21,1,right,1,1,1,1,1,same,left,0,0,0,-0.4184449304230649,2.620866685412566,-0.897054183926368,-0.9777158362249639,-0.902093023255814,0.8137718226068146,-0.8968347010550997
1,0,48,no,action,constant,short,NA,0.4393279552459717,1,right,1,1,8,0.4053518772125244,0,NA,NA,0.36,1,right,1,1,1,1,1,different,left,0,0,0,-0.39216781139432294,2.4669923989909237,-0.6701457752853917,-0.6801264289301958,-0.902093023255814,0.8137718226068146,-0.8968347010550997
1,0,49,no,action,constant,short,NA,0.4233579635620117,1,right,1,1,8,0.4002020359039306,0,NA,NA,0.25,1,right,1,1,1,1,1,same,right,0,0,0,-0.3977207063554952,2.498737913067619,-0.7192468645233636,-0.7430131829330937,-0.902093023255814,0.8137718226068146,-0.8968347010550997
1,0,50,no,action,constant,short,NA,0.3860318660736084,1,right,1,1,8,0.4568860530853271,0,NA,NA,0.17,1,right,1,1,1,1,1,same,right,0,0,0,-0.3401920990257793,2.1887295382449374,-0.17879390311930218,-0.09149944053927071,-0.902093023255814,0.8137718226068146,-0.8968347010550997
1,0,51,no,action,constant,short,NA,0.5767929553985596,1,left,1,1,7,0.3869960308074951,0,NA,NA,0.32,1,right,1,1,1,1,1,different,right,0,0,0,-0.41229348926336884,2.584005830533786,-0.8451593336386984,-0.9080505229643939,-0.902093023255814,0.8137718226068146,-0.8968347010550997
1,0,52,no,action,constant,short,NA,0.4688730239868164,1,left,1,1,7,0.3714861869812011,0,NA,NA,0.77,1,right,1,1,1,1,1,same,left,0,0,0,-0.4300573300309178,2.691890129553066,-0.993037720592299,-1.1092267188598164,-0.902093023255814,0.8137718226068146,-0.8968347010550997
1,0,53,no,action,constant,short,NA,0.4907081127166748,1,left,1,1,7,0.3853318691253662,0,NA,NA,0.19,1,right,1,1,1,1,1,same,left,0,0,0,-0.4141650708911608,2.5951655705763956,-0.8610262596980058,-0.9292462585665037,-0.902093023255814,0.8137718226068146,-0.8968347010550997
1,0,54,no,action,constant,short,NA,0.5151288509368896,1,left,1,1,7,0.391402006149292,0,NA,NA,0.23,1,right,1,1,1,1,1,same,left,0,0,0,-0.40737695267562996,2.5549179214441002,-0.8031506239573228,-0.8523705525883453,-0.902093023255814,0.8137718226068146,-0.8968347010550997
1,0,55,no,action,constant,short,NA,0.5030720233917236,1,left,1,1,7,0.2677550315856933,0,NA,NA,0.4,1,right,1,1,1,1,1,same,left,0,0,0,-0.572262359265967,3.7347570802976913,-1.9820609569652918,-2.7197042722820615,-0.902093023255814,0.8137718226068146,-0.8968347010550997
1,1,1,no,action,variable,NA,NA,0.4215188026428222,2.8,left,1,1,7,0.5114808082580566,0,NA,NA,0.28,1,right,1,1,2.8,1,7.839999999999999,different,right,0.4471580313422192,0.447158031342219,0,-0.29117065720889296,1.9551075697359723,0.34173901916474386,0.46367031757102656,0.8979069767441858,0.8062369388858839,-0.8968347010550997
1,1,2,no,action,variable,NA,NA,0.5313889980316162,1,right,1,1,8,0.5113081932067871,0,NA,NA,0.25,1,right,2.8,1,1,2.8,1,different,left,0,0,0.4471580313422192,-0.29131724807927617,1.955767604129849,0.34009322339584147,0.46201017019397017,-0.902093023255814,0.8137718226068146,0.9031652989449002
1,1,3,no,action,variable,NA,NA,0.5533578395843506,2.8,right,1,1,8,0.7430598735809326,0,NA,NA,0.24,1,right,1,1,2.8,1,7.839999999999999,same,right,0.4471580313422192,0.447158031342219,0,-0.1289761906564241,1.3457865719229716,2.5497263474518657,2.3005290354177346,0.8979069767441858,0.8062369388858839,-0.8968347010550997
1,1,4,no,action,variable,NA,NA,0.701225996017456,1,left,1,1,7,0.3853750228881836,0,NA,NA,0.22,1,right,2.8,1,1,2.8,1,different,right,0,0,0.4471580313422192,-0.4141164364718277,2.594874967520014,-0.8606148107557803,-0.9286954718532563,-0.902093023255814,0.8137718226068146,0.9031652989449002
1,1,5,no,action,variable,NA,NA,0.4533751010894775,2.8,left,1,1,7,0.4076361656188965,0,NA,NA,0.46,1,right,1,1,2.8,1,7.839999999999999,same,left,0.4471580313422192,0.447158031342219,0,-0.3897272922025188,2.45316800701857,-0.6483662597303451,-0.6524874530216836,0.8979069767441858,0.8062369388858839,-0.8968347010550997
1,1,6,no,action,variable,NA,NA,0.4044170379638672,2.8,right,1,1,8,0.4997320175170898,0,NA,NA,0.32,1,right,2.8,1,2.8,2.8,7.839999999999999,different,left,0.4471580313422192,0.447158031342219,0.4471580313422192,-0.3012628246908062,2.0010725047566162,0.22972033974489334,0.3493761236003311,0.8979069767441858,0.8062369388858839,0.9031652989449002
1,1,7,no,action,variable,NA,NA,0.4157819747924804,1,left,1,1,7,0.5345759391784668,0,NA,NA,0.33,1,right,2.8,1,1,2.8,1,different,right,0,0,0.4471580313422192,-0.2719905923755528,1.8706416183578973,0.5619392188084394,0.6808853067555616,-0.902093023255814,0.8137718226068146,0.9031652989449002
1,1,8,no,action,variable,NA,NA,0.5163290500640869,2.8,right,1,1,8,0.4550979137420654,0,NA,NA,0.35,1,right,1,1,2.8,1,7.839999999999999,different,left,0.4471580313422192,0.447158031342219,0,-0.341895155379974,2.1973293434317243,-0.1958428924380423,-0.11078662078456476,0.8979069767441858,0.8062369388858839,-0.8968347010550997
1,1,9,no,action,variable,NA,NA,0.570828914642334,1,left,1,1,7,0.3761520385742187,0,NA,NA,0.27,1,right,2.8,1,1,2.8,1,different,right,0,0,0.4471580313422192,-0.42463658015840505,2.6584994827900945,-0.9485512244632665,-1.0478365131873537,-0.902093023255814,0.8137718226068146,0.9031652989449002
1,1,10,no,action,variable,NA,NA,0.6020798683166504,1,right,1,1,8,0.4357140064239502,0,NA,NA,0.35,1,right,1,1,1,1,1,different,left,0,0,0,-0.3607984790478097,2.2950834383483163,-0.3806584830503362,-0.3248675053769466,-0.902093023255814,0.8137718226068146,-0.8968347010550997
1,1,11,no,action,variable,NA,NA,0.6055130958557129,2.8,left,1,1,7,0.5237851142883301,0,NA,NA,0.48,1,right,1,1,2.8,1,7.839999999999999,different,right,0.4471580313422192,0.447158031342219,0,-0.280846848167945,1.909179876863637,0.45905425126628246,0.5805878613154393,0.8979069767441858,0.8062369388858839,-0.8968347010550997
1,1,12,no,action,variable,NA,NA,0.4451990127563476,1,left,1,1,7,0.8004469871520996,0,NA,NA,0.73,1,right,2.8,1,1,2.8,1,same,left,0,0,0.4471580313422192,-0.09666742570557872,1.2493019725864514,3.0968829714560555,2.6664270701920727,-0.902093023255814,0.8137718226068146,0.9031652989449002
1,1,13,no,action,variable,NA,NA,0.5199379920959473,1,right,1,1,8,0.436633825302124,0,NA,NA,0.46,1,right,1,1,1,1,1,different,left,0,0,0,-0.3598826232465866,2.290248583714422,-0.37188848294477633,-0.31449540237907436,-0.902093023255814,0.8137718226068146,-0.8968347010550997
1,1,14,no,action,variable,NA,NA,0.3664271831512451,2.8,left,1,1,7,0.5055038928985596,0,NA,NA,0.37,1,right,1,1,2.8,1,7.839999999999999,different,right,0.4471580313422192,0.447158031342219,0,-0.29627549554705906,1.978224132490849,0.2847522040672111,0.40585782245964025,0.8979069767441858,0.8062369388858839,-0.8968347010550997
1,1,15,no,action,variable,NA,NA,0.4093539714813232,2.8,left,1,1,7,0.4562051296234131,0,NA,NA,0.21,1,right,2.8,1,2.8,2.8,7.839999999999999,same,left,0.4471580313422192,0.447158031342219,0.4471580313422192,-0.3408398357743683,2.1919963960630544,-0.18528615825187789,-0.09883508471262206,0.8979069767441858,0.8062369388858839,0.9031652989449002
1,1,16,no,action,variable,NA,NA,0.4321260452270508,2.8,right,1,1,8,0.8306968212127686,0,NA,NA,0.26,1,right,2.8,1,2.8,2.8,7.839999999999999,different,left,0.4471580313422192,0.447158031342219,0.4471580313422192,-0.08055745142521108,1.2038086272438828,3.385299587161894,2.8488731630222914,0.8979069767441858,0.8062369388858839,0.9031652989449002
1,1,17,no,action,variable,NA,NA,0.4667749404907226,1,right,1,1,8,0.5377299785614014,0,NA,NA,0.51,1,right,2.8,1,1,2.8,1,same,right,0,0,0.4471580313422192,-0.26943575083762017,1.859669424932041,0.5920113627681212,0.709818987733823,-0.902093023255814,0.8137718226068146,0.9031652989449002
1,1,18,no,action,variable,NA,NA,0.4371891021728515,1,right,1,1,8,0.5078160762786865,0,NA,NA,0.45,1,right,1,1,1,1,1,same,right,0,0,0,-0.29429355448906397,1.9692169009852414,0.30679768385563,0.4283033829526607,-0.902093023255814,0.8137718226068146,-0.8968347010550997
1,1,19,no,action,variable,NA,NA,0.4253890514373779,2.8,right,1,1,8,0.3926270008087158,0,NA,NA,0.39,1,right,1,1,2.8,1,7.839999999999999,same,right,0.4471580313422192,0.447158031342219,0,-0.4060198374435615,2.546946587830801,-0.7914709296746979,-0.8370011691677275,0.8979069767441858,0.8062369388858839,-0.8968347010550997
1,1,20,no,action,variable,NA,NA,0.4363059997558594,2.8,right,1,1,8,0.4398379325866699,0,NA,NA,0.24,1,right,2.8,1,2.8,2.8,7.839999999999999,same,right,0.4471580313422192,0.447158031342219,0.4471580313422192,-0.35670731885271484,2.273564706252229,-0.34133896728416985,-0.27853495513524995,0.8979069767441858,0.8062369388858839,0.9031652989449002
1,1,21,no,action,variable,NA,NA,0.521759033203125,2.8,left,1,1,7,0.4752960205078125,0,NA,NA,0.39,1,right,2.8,1,2.8,2.8,7.839999999999999,different,right,0.4471580313422192,0.447158031342219,0.4471580313422192,-0.32303582189024654,2.103951972776012,-0.0032643286892809847,0.10279607330924283,0.8979069767441858,0.8062369388858839,0.9031652989449002
1,1,22,no,action,variable,NA,NA,0.5210859775543213,2.8,left,1,1,7,0.5471141338348389,0,NA,NA,0.16,1,right,2.8,1,2.8,2.8,7.839999999999999,same,left,0.4471580313422192,0.447158031342219,0.4471580313422192,-0.26192206576138655,1.8277721925967954,0.6814844587128692,0.7949117669684939,0.8979069767441858,0.8062369388858839,0.9031652989449002
1,1,23,no,action,variable,NA,NA,0.631324052810669,2.8,left,1,1,7,0.5052530765533447,0,NA,NA,0.19,1,right,2.8,1,2.8,2.8,7.839999999999999,same,left,0.4471580313422192,0.447158031342219,0.4471580313422192,-0.29649103332760557,1.9792061570839734,0.2823607991654358,0.4034168486111637,0.8979069767441858,0.8062369388858839,0.9031652989449002
1,1,24,no,action,variable,NA,NA,0.5232279300689697,2.8,right,1,1,8,0.5231149196624756,0,NA,NA,0.32,1,right,2.8,1,2.8,2.8,7.839999999999999,different,left,0.4471580313422192,0.447158031342219,0.4471580313422192,-0.28140289336449015,1.9116258443655563,0.45266429006961867,0.5742906275780578,0.8979069767441858,0.8062369388858839,0.9031652989449002
1,1,25,no,action,variable,NA,NA,0.4150149822235107,2.8,left,1,1,7,0.5217421054840088,0,NA,NA,0.17,1,right,2.8,1,2.8,2.8,7.839999999999999,different,right,0.4471580313422192,0.447158031342219,0.4471580313422192,-0.28254411355272574,1.916655737555093,0.43957521266997795,0.5613662640266966,0.8979069767441858,0.8062369388858839,0.9031652989449002
1,1,26,no,action,variable,NA,NA,0.3456571102142334,1,left,1,1,7,0.4049010276794433,0,NA,NA,0.71,1,right,2.8,1,1,2.8,1,same,left,0,0,0.4471580313422192,-0.3926511209472078,2.469739347739299,-0.6744443937922905,-0.6855999286401746,-0.902093023255814,0.8137718226068146,0.9031652989449002
1,1,27,no,action,variable,NA,NA,0.440364122390747,1,right,1,1,8,0.4190740585327148,0,NA,NA,0.61,1,right,1,1,1,1,1,different,left,0,0,0,-0.3777092219740482,2.386213080096762,-0.5393118312533806,-0.5163823346407254,-0.902093023255814,0.8137718226068146,-0.8968347010550997
1,1,28,no,action,variable,NA,NA,0.472787857055664,2.8,right,1,1,8,0.6137940883636475,0,NA,NA,0.68,1,right,1,1,2.8,1,7.839999999999999,same,right,0.4471580313422192,0.447158031342219,0,-0.21197729870545157,1.6292108688533695,1.3172435436072638,1.3605382197540423,0.8979069767441858,0.8062369388858839,-0.8968347010550997
1,1,29,no,action,variable,NA,NA,0.4853341579437256,2.8,left,1,1,7,0.4588270187377929,0,NA,NA,0.22,1,right,2.8,1,2.8,2.8,7.839999999999999,different,right,0.4471580313422192,0.447158031342219,0.4471580313422192,-0.3383510159162915,2.1794706047410703,-0.16028779351345376,-0.07064910185740854,0.8979069767441858,0.8062369388858839,0.9031652989449002
1,1,30,no,action,variable,NA,NA,1.1188981533050537,1,right,1,1,8,0.455441951751709,0,NA,NA,0.62,1,right,2.8,1,1,2.8,1,different,left,0,0,0.4471580313422192,-0.341566968066215,2.195669494551009,-0.19256266689311616,-0.10706988653845596,-0.902093023255814,0.8137718226068146,0.9031652989449002
1,1,31,no,action,variable,NA,NA,0.4570209980010986,1,right,1,1,8,0.4104928970336914,0,NA,NA,0.25,1,right,1,1,1,1,1,same,right,0,0,0,-0.38669435329670016,2.4360957454470267,-0.6211287943947259,-0.618139300533712,-0.902093023255814,0.8137718226068146,-0.8968347010550997
1,1,32,no,action,variable,NA,NA,0.550544023513794,1,right,1,1,8,0.3403289318084717,0,NA,NA,0.18,1,right,1,1,1,1,1,same,right,0,0,0,-0.4681011293917744,2.938333789860611,-1.2901061300777537,-1.5400742440643487,-0.902093023255814,0.8137718226068146,-0.8968347010550997
1,1,33,no,action,variable,NA,NA,0.4044740200042724,1,left,1,1,7,0.345240831375122,0,NA,NA,0.17,1,right,1,1,1,1,1,different,right,0,0,0,-0.4618778462353977,2.896528768097677,-1.243273693018463,-1.469595317363596,-0.902093023255814,0.8137718226068146,-0.8968347010550997
1,1,34,no,action,variable,NA,NA,0.4251589775085449,1,left,1,1,7,0.3412489891052246,0,NA,NA,0.53,1,right,1,1,1,1,1,same,left,0,0,0,-0.4669286264762367,2.9304116112462637,-1.2813338567736179,-1.5267956023949707,-0.902093023255814,0.8137718226068146,-0.8968347010550997
1,1,35,no,action,variable,NA,NA,0.5070559978485107,1,right,1,1,8,0.4458959102630615,0,NA,NA,0.6,1,right,1,1,1,1,1,different,left,0,0,0,-0.3507665109612924,2.2426758734118875,-0.2835792646708542,-0.21125507192861967,-0.902093023255814,0.8137718226068146,-0.8968347010550997
1,1,36,no,action,variable,NA,NA,0.4096391201019287,1,right,1,1,8,0.5017828941345215,0,NA,NA,0.18,1,right,1,1,1,1,1,same,right,0,0,0,-0.2994841479429143,1.9928937627991619,0.24927439389420084,0.3695197077807417,-0.902093023255814,0.8137718226068146,-0.8968347010550997
1,1,38,no,action,variable,NA,NA,0.5328350067138672,1,left,1,1,7,0.4574768543243408,0,NA,NA,0.48,1,right,2.8,1,1,2.8,1,same,left,0,0,0.4471580313422192,-0.3396308738237665,2.1859029381430135,-0.17316091704838993,-0.08514354303607818,-0.902093023255814,0.8137718226068146,0.9031652989449002
1,1,39,no,action,variable,NA,NA,0.3972270488739013,2.8,right,1,1,8,0.4922428131103515,0,NA,NA,0.21,1,right,1,1,2.8,1,7.839999999999999,different,left,0.4471580313422192,0.447158031342219,0,-0.3078206159705485,2.0315177253300374,0.15831462608085808,0.2751088792358812,0.8979069767441858,0.8062369388858839,-0.8968347010550997
1,1,40,no,action,variable,NA,NA,0.4764111042022705,2.8,left,1,1,7,0.4731090068817138,0,NA,NA,0.22,1,right,2.8,1,2.8,2.8,7.839999999999999,different,right,0.4471580313422192,0.447158031342219,0.4471580313422192,-0.3250387839281985,2.113677789799548,-0.024116379225388583,0.08011244939080352,0.8979069767441858,0.8062369388858839,0.9031652989449002
1,1,41,no,action,variable,NA,NA,0.5350551605224609,2.8,right,1,1,8,0.3490378856658935,0,NA,NA,0.26,1,right,2.8,1,2.8,2.8,7.839999999999999,different,left,0.4471580313422192,0.447158031342219,0.4471580313422192,-0.45712743079827195,2.8650185010495433,-1.2070707324997623,-1.4157966755569396,0.8979069767441858,0.8062369388858839,0.9031652989449002
1,1,42,no,action,variable,NA,NA,0.4911839962005615,2.8,left,1,1,7,0.513253927230835,0,NA,NA,0.34,1,right,2.8,1,2.8,2.8,7.839999999999999,different,right,0.4471580313422192,0.447158031342219,0.4471580313422192,-0.28966771888254234,1.9483533333983667,0.35864479697320656,0.48069115327413614,0.8979069767441858,0.8062369388858839,0.9031652989449002
1,1,43,no,action,variable,NA,NA,0.8647241592407227,1,right,1,1,8,0.4429099559783935,0,NA,NA,0.22,1,right,2.8,1,1,2.8,1,different,left,0,0,0.4471580313422192,-0.3536845572905829,2.2577952617727632,-0.3120488036345749,-0.24430206146512085,-0.902093023255814,0.8137718226068146,0.9031652989449002
1,1,44,no,action,variable,NA,NA,0.7787559032440186,2.8,left,1,1,7,0.4131960868835449,0,NA,NA,0.3,1,right,1,1,2.8,1,7.839999999999999,different,right,0.4471580313422192,0.447158031342219,0,-0.38384380005883195,2.4201584471487014,-0.5953552689419425,-0.5858566729141654,0.8979069767441858,0.8062369388858839,-0.8968347010550997
1,1,45,no,action,variable,NA,NA,0.6347858905792236,2.8,right,1,1,8,0.3839058876037597,0,NA,NA,0.41,1,right,2.8,1,2.8,2.8,7.839999999999999,different,left,0.4471580313422192,0.447158031342219,0.4471580313422192,-0.4157752274652531,2.604805063662188,-0.8746222603800576,-0.9474813451455076,0.8979069767441858,0.8062369388858839,0.9031652989449002
1,1,46,no,action,variable,NA,NA,0.6233530044555664,1,right,1,1,8,0.3983278274536133,0,NA,NA,0.18,1,right,2.8,1,1,2.8,1,same,right,0,0,0.4471580313422192,-0.39975935242221644,2.5104949518407764,-0.7371164785279786,-0.7661009298819046,-0.902093023255814,0.8137718226068146,0.9031652989449002
1,1,47,no,action,variable,NA,NA,0.7521951198577881,1,left,1,1,7,0.4052379131317138,0,NA,NA,0.18,1,right,1,1,1,1,1,different,right,0,0,0,-0.3922899298131506,2.467686185312507,-0.6712323642046398,-0.6815094248301247,-0.902093023255814,0.8137718226068146,-0.8968347010550997
1,1,48,no,action,variable,NA,NA,0.4811170101165771,1,right,1,1,8,0.3626680374145508,0,NA,NA,0.36,1,right,1,1,1,1,1,different,left,0,0,0,-0.440490717885671,2.7573425194262198,-1.0771142431180214,-1.2273852469837077,-0.902093023255814,0.8137718226068146,-0.8968347010550997
1,1,49,no,action,variable,NA,NA,0.5413801670074463,2.8,left,1,1,7,0.3786711692810058,0,NA,NA,0.26,1,right,1,1,2.8,1,7.839999999999999,different,right,0.4471580313422192,0.447158031342219,0,-0.42173775930697976,2.640813669281265,-0.9245326083110254,-1.0150072529444105,0.8979069767441858,0.8062369388858839,-0.8968347010550997
1,1,50,no,action,variable,NA,NA,0.5367951393127441,2.8,right,1,1,8,0.3810231685638428,0,NA,NA,0.18,1,right,2.8,1,2.8,2.8,7.839999999999999,different,left,0.4471580313422192,0.447158031342219,0.4471580313422192,-0.41904861573249336,2.624512319734289,-0.9021075043604421,-0.984552596115912,0.8979069767441858,0.8062369388858839,0.9031652989449002
1,1,51,no,action,variable,NA,NA,0.6269750595092773,1,left,1,1,7,0.4229300022125244,0,NA,NA,0.23,1,right,2.8,1,1,2.8,1,different,right,0,0,0.4471580313422192,-0.3737315053634489,2.364457462862838,-0.5025473906864488,-0.47133453745869636,-0.902093023255814,0.8137718226068146,0.9031652989449002
1,1,52,no,action,variable,NA,NA,0.72261810302734375,1,left,1,1,7,0.3729779720306396,0,NA,NA,0.17,1,right,1,1,1,1,1,same,left,0,0,0,-0.42831681673832644,2.6811234844664003,-0.9788143171033181,-1.0895153373128372,-0.902093023255814,0.8137718226068146,-0.8968347010550997
1,1,53,no,action,variable,NA,NA,0.6228160858154297,1,left,1,1,7,0.3692131042480469,0,NA,NA,0.38,1,right,1,1,1,1,1,same,left,0,0,0,-0.43272289323220436,2.7084629134077924,-1.014710395814281,-1.1394143270336794,-0.902093023255814,0.8137718226068146,-0.8968347010550997
1,1,54,no,action,variable,NA,NA,0.5808210372924805,2.8,left,1,1,7,0.4448041915893554,0,NA,NA,0.55,1,right,1,1,2.8,1,7.839999999999999,same,left,0.4471580313422192,0.447158031342219,0,-0.35183112885506757,2.2481802530386292,-0.29398824094958953,-0.22331191148007187,0.8979069767441858,0.8062369388858839,-0.8968347010550997
1,1,55,no,action,variable,NA,NA,0.4842970371246338,1,right,1,1,8,0.503607988357544,0,NA,NA,0.55,1,right,2.8,1,1,2.8,1,different,left,0,0,0.4471580313422192,-0.2979073896203998,1.9856714411170842,0.26667572899219494,0.3873765578460375,-0.902093023255814,0.8137718226068146,0.9031652989449002
1,2,0,no,action,constant,long,NA,0.8567590713500977,2.8,left,1,1,7,0.4852049350738525,0,NA,NA,0.49,1,right,NA,1,2.8,NA,7.839999999999999,different,right,0.4471580313422192,0.447158031342219,NA,-0.314074790525081,2.0609848080951427,0.09121207732087284,0.2042801062350968,0.8979069767441858,0.8062369388858839,NA
1,2,1,no,action,constant,long,NA,0.4948198795318603,2.8,left,1,1,7,0.4275999069213867,0,NA,NA,0.32,1,right,2.8,1,2.8,2.8,7.839999999999999,same,left,0.4471580313422192,0.447158031342219,0.4471580313422192,-0.3689623979991168,2.338634746671841,-0.4580222501816272,-0.4173242088406943,0.8979069767441858,0.8062369388858839,0.9031652989449002
1,2,2,no,action,constant,long,NA,0.4793450832366943,2.8,right,1,1,8,0.483821153640747,0,NA,NA,0.25,1,right,2.8,1,2.8,2.8,7.839999999999999,different,left,0.4471580313422192,0.447158031342219,0.4471580313422192,-0.31531514732467547,2.066879450133618,0.07801843278674384,0.19023301665797818,0.8979069767441858,0.8062369388858839,0.9031652989449002
1,2,3,no,action,constant,long,NA,0.5254659652709961,2.8,left,1,1,7,0.4087438583374023,0,NA,NA,0.21,1,right,2.8,1,2.8,2.8,7.839999999999999,different,right,0.4471580313422192,0.447158031342219,0.4471580313422192,-0.3885487598612349,2.4465199405504916,-0.63780497914703,-0.6391405278684058,0.8979069767441858,0.8062369388858839,0.9031652989449002
1,2,4,no,action,constant,long,NA,0.5625278949737549,2.8,right,1,1,8,0.4419910907745361,0,NA,NA,0.41,1,right,2.8,1,2.8,2.8,7.839999999999999,different,left,0.4471580313422192,0.447158031342219,0.4471580313422192,-0.35458648464740766,2.262489043042973,-0.32080971094583144,-0.254516424281944,0.8979069767441858,0.8062369388858839,0.9031652989449002
1,2,5,no,action,constant,long,NA,0.4735569953918457,2.8,right,1,1,8,0.4945051670074463,0,NA,NA,0.29,1,right,2.8,1,2.8,2.8,7.839999999999999,same,right,0.4471580313422192,0.447158031342219,0.4471580313422192,-0.3058291661677154,2.022223561487967,0.1798850073669286,0.2976621266384661,0.8979069767441858,0.8062369388858839,0.9031652989449002
1,2,6,no,action,constant,long,NA,0.5284509658813477,2.8,left,1,1,7,0.3818120956420898,0,NA,NA,0.31,1,right,2.8,1,2.8,2.8,7.839999999999999,different,right,0.4471580313422192,0.447158031342219,0.4471580313422192,-0.418150317463027,2.619089367292855,-0.8945854902730145,-0.9743793328562673,0.8979069767441858,0.8062369388858839,0.9031652989449002
1,2,7,no,action,constant,long,NA,0.6295788288116455,2.8,right,1,1,8,0.4402210712432861,0,NA,NA,0.61,1,right,2.8,1,2.8,2.8,7.839999999999999,different,left,0.4471580313422192,0.447158031342219,0.4471580313422192,-0.35632917371889855,2.2715859492499275,-0.33768593717280837,-0.2742524466106015,0.8979069767441858,0.8062369388858839,0.9031652989449002
1,2,8,no,action,constant,long,NA,0.577394962310791,2.8,right,1,1,8,0.4306240081787109,0,NA,NA,0.39,1,right,2.8,1,2.8,2.8,7.839999999999999,same,right,0.4471580313422192,0.447158031342219,0.4471580313422192,-0.36590176102234007,2.3222114443396187,-0.42918899944577443,-0.382662374608898,0.8979069767441858,0.8062369388858839,0.9031652989449002
1,2,9,no,action,constant,long,NA,0.4604971408843994,2.8,right,1,1,8,0.4067420959472656,0,NA,NA,0.32,1,right,2.8,1,2.8,2.8,7.839999999999999,same,right,0.4471580313422192,0.447158031342219,0.4471580313422192,-0.39068087777608207,2.4585603751465417,-0.6568907543897151,-0.6632868471763907,0.8979069767441858,0.8062369388858839,0.9031652989449002
1,2,10,no,action,constant,long,NA,0.584446907043457,2.8,right,1,1,8,0.3866770267486572,0,NA,NA,0.32,1,right,2.8,1,2.8,2.8,7.839999999999999,same,right,0.4471580313422192,0.447158031342219,0.4471580313422192,-0.4126516294595568,2.586137605350956,-0.8482008733331616,-0.9121064747829868,0.8979069767441858,0.8062369388858839,0.9031652989449002
1,2,11,no,action,constant,long,NA,0.7104852199554443,2.8,left,1,1,7,0.3854429721832275,0,NA,NA,0.18,1,right,2.8,1,2.8,2.8,7.839999999999999,different,right,0.4471580313422192,0.447158031342219,0.4471580313422192,-0.41403986845148594,2.5944175200180624,-0.8599669491616687,-0.9278283360090901,0.8979069767441858,0.8062369388858839,0.9031652989449002
1,2,12,no,action,constant,long,NA,0.4973330497741699,2.8,left,1,1,7,0.5344328880310059,0,NA,NA,0.27,1,right,2.8,1,2.8,2.8,7.839999999999999,same,left,0.4471580313422192,0.447158031342219,0.4471580313422192,-0.2721068240151085,1.8711423312368898,0.5605752996629403,0.679568978862597,0.8979069767441858,0.8062369388858839,0.9031652989449002
1,2,13,no,action,constant,long,NA,0.5805320739746094,2.8,right,1,1,8,0.4384369850158691,0,NA,NA,0.33,1,right,2.8,1,2.8,2.8,7.839999999999999,different,left,0.4471580313422192,0.447158031342219,0.4471580313422192,-0.35809281740963056,2.2808294787534984,-0.3546962821157593,-0.29422578082695994,0.8979069767441858,0.8062369388858839,0.9031652989449002
1,2,14,no,action,constant,long,NA,0.5281920433044434,2.8,right,1,1,8,0.3781180381774902,0,NA,NA,0.28,1,right,2.8,1,2.8,2.8,7.839999999999999,same,right,0.4471580313422192,0.447158031342219,0.4471580313422192,-0.42237260406013993,2.6446767914589566,-0.9298064290069556,-1.0221968947620879,0.8979069767441858,0.8062369388858839,0.9031652989449002
1,2,15,no,action,constant,long,NA,0.5978989601135254,2.8,left,1,1,7,0.4532270431518554,0,NA,NA,0.52,1,right,2.8,1,2.8,2.8,7.839999999999999,different,right,0.4471580313422192,0.447158031342219,0.4471580313422192,-0.3436841845517428,2.2063996734302243,-0.2136806816625961,-0.13104744657286357,0.8979069767441858,0.8062369388858839,0.9031652989449002
1,2,16,no,action,constant,long,NA,0.6131410598754883,2.8,left,1,1,7,0.4619169235229492,0,NA,NA,0.42,1,right,2.8,1,2.8,2.8,7.839999999999999,same,left,0.4471580313422192,0.447158031342219,0.4471580313422192,-0.3354361259587137,2.1648914535825994,-0.1308271399706703,-0.03763785835479133,0.8979069767441858,0.8062369388858839,0.9031652989449002
1,2,17,no,action,constant,long,NA,0.6135098934173584,2.8,left,1,1,7,0.4186079502105713,0,NA,NA,0.4,1,right,2.8,1,2.8,2.8,7.839999999999999,same,left,0.4471580313422192,0.447158031342219,0.4471580313422192,-0.37819252778951173,2.388870062063973,-0.5437559344691316,-0.5218557920242607,0.8979069767441858,0.8062369388858839,0.9031652989449002
1,2,18,no,action,constant,long,NA,0.6624259948730469,2.8,left,1,1,7,0.532221794128418,0,NA,NA,0.25,1,right,2.8,1,2.8,2.8,7.839999999999999,same,left,0.4471580313422192,0.447158031342219,0.4471580313422192,-0.27390734535037026,1.878915916319491,0.5394936560706741,0.6591780038703974,0.8979069767441858,0.8062369388858839,0.9031652989449002
1,2,19,no,action,constant,long,NA,0.4919459819793701,2.8,left,1,1,7,0.4085619449615478,0,NA,NA,0.71,1,right,2.8,1,2.8,2.8,7.839999999999999,same,left,0.4471580313422192,0.447158031342219,0.4471580313422192,-0.38874208768615365,2.4476092605592914,-0.6395394296603899,-0.6413299730951916,0.8979069767441858,0.8062369388858839,0.9031652989449002
1,2,20,no,action,constant,long,NA,0.4857790470123291,2.8,right,1,1,8,0.3927240371704101,0,NA,NA,0.17,1,right,2.8,1,2.8,2.8,7.839999999999999,different,left,0.4471580313422192,0.447158031342219,0.4471580313422192,-0.40591251637411796,2.5463172746059386,-0.7905457378543348,-0.8357857538320121,0.8979069767441858,0.8062369388858839,0.9031652989449002
1,2,21,no,action,constant,long,NA,0.6646411418914795,2.8,left,1,1,7,0.3915448188781738,0,NA,NA,0.28,1,right,2.8,1,2.8,2.8,7.839999999999999,different,right,0.4471580313422192,0.447158031342219,0.4471580313422192,-0.4072185184657854,2.5539860362988036,-0.8017889780103999,-0.8505762789257231,0.8979069767441858,0.8062369388858839,0.9031652989449002
1,2,22,no,action,constant,long,NA,0.689478874206543,2.8,right,1,1,8,0.398820161819458,0,NA,NA,0.2,1,right,2.8,1,2.8,2.8,7.839999999999999,different,left,0.4471580313422192,0.447158031342219,0.4471580313422192,-0.39922289462917865,2.5073958032560304,-0.7324223234688855,-0.7600255242602245,0.8979069767441858,0.8062369388858839,0.9031652989449002
1,2,23,no,action,constant,long,NA,0.6247251033782959,2.8,left,1,1,7,0.455963134765625,0,NA,NA,0.22,1,right,2.8,1,2.8,2.8,7.839999999999999,different,right,0.4471580313422192,0.447158031342219,0.4471580313422192,-0.3410702692107308,2.1931597617294694,-0.1875934548063474,-0.10144475244952271,0.8979069767441858,0.8062369388858839,0.9031652989449002
1,2,24,no,action,constant,long,NA,0.70806884765625,2.8,right,1,1,8,0.3288378715515136,0,NA,NA,0.18,1,right,2.8,1,2.8,2.8,7.839999999999999,different,left,0.4471580313422192,0.447158031342219,0.4471580313422192,-0.48301817148873627,3.04101226322208,-1.3996674818371297,-1.709010332962467,0.8979069767441858,0.8062369388858839,0.9031652989449002
1,2,25,no,action,constant,long,NA,0.4688048362731933,2.8,left,1,1,7,0.5947661399841309,0,NA,NA,0.64,1,right,2.8,1,2.8,2.8,7.839999999999999,different,right,0.4471580313422192,0.447158031342219,0.4471580313422192,-0.22565376381623162,1.6813331035063317,1.1358218384686865,1.2056517140548113,0.8979069767441858,0.8062369388858839,0.9031652989449002
1,2,26,no,action,constant,long,NA,0.6185250282287598,2.8,right,1,1,8,0.414417028427124,0,NA,NA,0.26,1,right,2.8,1,2.8,2.8,7.839999999999999,different,left,0.4471580313422192,0.447158031342219,0.4471580313422192,-0.3825624077029885,2.413028257539016,-0.5837142190351068,-0.5713448540473253,0.8979069767441858,0.8062369388858839,0.9031652989449002
1,2,27,no,action,constant,long,NA,0.7746901512145996,2.8,left,1,1,7,0.397317886352539,0,NA,NA,0.38,1,right,2.8,1,2.8,2.8,7.839999999999999,different,right,0.4471580313422192,0.447158031342219,0.4471580313422192,-0.40086188354932173,2.516876371160152,-0.7467457476952035,-0.7785871382931241,0.8979069767441858,0.8062369388858839,0.9031652989449002
1,2,28,no,action,constant,long,NA,0.6451330184936523,2.8,left,1,1,7,0.5103230476379395,0,NA,NA,0.38,1,right,2.8,1,2.8,2.8,7.839999999999999,same,left,0.4471580313422192,0.447158031342219,0.4471580313422192,-0.29215481725282294,1.959543086734098,0.3307003668805036,0.45252466633597416,0.8979069767441858,0.8062369388858839,0.9031652989449002
1,2,29,no,action,constant,long,NA,0.7880270481109619,2.8,left,1,1,7,0.4856019020080566,0,NA,NA,0.17,1,right,2.8,1,2.8,2.8,7.839999999999999,same,left,0.4471580313422192,0.447158031342219,0.4471580313422192,-0.31371962088258093,2.0593000065790705,0.09499695294963315,0.20830241641625058,0.8979069767441858,0.8062369388858839,0.9031652989449002
1,2,30,no,action,constant,long,NA,1.5297319889068604,2.8,left,1,1,7,0.523421049118042,0,NA,NA,0.19,1,right,2.8,1,2.8,2.8,7.839999999999999,same,left,0.4471580313422192,0.447158031342219,0.4471580313422192,-0.281148816407637,1.9105078056852847,0.455583077040987,0.5771680591151485,0.8979069767441858,0.8062369388858839,0.9031652989449002
1,2,31,no,action,constant,long,NA,0.819472074508667,2.8,left,1,1,7,0.4712851047515869,0,NA,NA,0.29,1,right,2.8,1,2.8,2.8,7.839999999999999,same,left,0.4471580313422192,0.447158031342219,0.4471580313422192,-0.32671628616104836,2.1218578518985813,-0.041506348330502964,0.06111467057557636,0.8979069767441858,0.8062369388858839,0.9031652989449002
1,2,32,no,action,constant,long,NA,0.7091770172119141,2.8,left,1,1,7,0.4331741333007812,0,NA,NA,0.28,1,right,2.8,1,2.8,2.8,7.839999999999999,same,left,0.4471580313422192,0.447158031342219,0.4471580313422192,-0.3633374848725192,2.3085404301037395,-0.4048748674786752,-0.3536218462796464,0.8979069767441858,0.8062369388858839,0.9031652989449002
1,2,33,no,action,constant,long,NA,0.4750750064849853,2.8,left,1,1,7,0.7012310028076172,0,NA,NA,0.27,1,right,2.8,1,2.8,2.8,7.839999999999999,same,left,0.4471580313422192,0.447158031342219,0.4471580313422192,-0.15413889113696408,1.4260635881701742,2.1509095697121694,2.015560462046007,0.8979069767441858,0.8062369388858839,0.9031652989449002
1,2,34,no,action,constant,long,NA,0.599168062210083,2.8,right,1,1,8,0.7783629894256592,0,NA,NA,0.33,1,right,2.8,1,2.8,2.8,7.839999999999999,different,left,0.4471580313422192,0.447158031342219,0.4471580313422192,-0.10881782262452383,1.2847476223630352,2.8863234069724637,2.5288233468329766,0.8979069767441858,0.8062369388858839,0.9031652989449002
1,2,35,no,action,constant,long,NA,0.4520559310913086,2.8,right,1,1,8,0.5872869491577148,0,NA,NA,0.36,1,right,2.8,1,2.8,2.8,7.839999999999999,same,right,0.4471580313422192,0.447158031342219,0.4471580313422192,-0.23114965005396956,1.702745142615883,1.0645115991448362,1.143410586088729,0.8979069767441858,0.8062369388858839,0.9031652989449002
1,2,36,no,action,constant,long,NA,0.55274200439453125,2.8,right,1,1,8,0.5228619575500488,0,NA,NA,0.34,1,right,2.8,1,2.8,2.8,7.839999999999999,same,right,0.4471580313422192,0.447158031342219,0.4471580313422192,-0.2816129554683334,1.912550694423545,0.45025242638066093,0.5719116659837736,0.8979069767441858,0.8062369388858839,0.9031652989449002
1,2,37,no,action,constant,long,NA,0.4607710838317871,2.8,right,1,1,8,0.3928761482238769,0,NA,NA,0.31,1,right,2.8,1,2.8,2.8,7.839999999999999,same,right,0.4471580313422192,0.447158031342219,0.4471580313422192,-0.4057443366989833,2.5453314092006396,-0.7890954371629539,-0.8338811123913882,0.8979069767441858,0.8062369388858839,0.9031652989449002
1,2,38,no,action,constant,long,NA,0.6825859546661377,2.8,right,1,1,8,0.4992759227752685,0,NA,NA,0.16,1,right,2.8,1,2.8,2.8,7.839999999999999,same,right,0.4471580313422192,0.447158031342219,0.4471580313422192,-0.30165937698107603,2.002900509284352,0.22537171086932667,0.34488515330432146,0.8979069767441858,0.8062369388858839,0.9031652989449002
1,2,39,no,action,constant,long,NA,0.4710509777069092,2.8,right,1,1,8,0.445930004119873,0,NA,NA,0.65,1,right,2.8,1,2.8,2.8,7.839999999999999,same,right,0.4471580313422192,0.447158031342219,0.4471580313422192,-0.3507333054362041,2.2425044082281227,-0.28325419727451073,-0.21087901804999143,0.8979069767441858,0.8062369388858839,0.9031652989449002
1,2,40,no,action,constant,long,NA,0.5373599529266357,2.8,right,1,1,8,0.4384129047393799,0,NA,NA,0.45,1,right,2.8,1,2.8,2.8,7.839999999999999,same,right,0.4471580313422192,0.447158031342219,0.4471580313422192,-0.35811667082245935,2.280954755641745,-0.3549258751719178,-0.2944959216661407,0.8979069767441858,0.8062369388858839,0.9031652989449002
1,2,41,no,action,constant,long,NA,0.5501132011413574,2.8,left,1,1,7,0.424670934677124,0,NA,NA,0.47,1,right,2.8,1,2.8,2.8,7.839999999999999,different,right,0.4471580313422192,0.447158031342219,0.4471580313422192,-0.3719474619697595,2.3547644030790496,-0.4859484946857235,-0.451130175803392,0.8979069767441858,0.8062369388858839,0.9031652989449002
1,2,42,no,action,constant,long,NA,0.4981629848480224,2.8,left,1,1,7,0.4179940223693847,0,NA,NA,0.26,1,right,2.8,1,2.8,2.8,7.839999999999999,same,left,0.4471580313422192,0.447158031342219,0.4471580313422192,-0.37882992892006945,2.39237870994311,-0.5496094208018996,-0.5290743849165869,0.8979069767441858,0.8062369388858839,0.9031652989449002
1,2,43,no,action,constant,long,NA,0.4817738533020019,2.8,left,1,1,7,0.3579969406127929,0,NA,NA,0.31,1,right,2.8,1,2.8,2.8,7.839999999999999,same,left,0.4471580313422192,0.447158031342219,0.4471580313422192,-0.44612068475461547,2.7933199604674646,-1.1216507496157226,-1.2911448433757546,0.8979069767441858,0.8062369388858839,0.9031652989449002
1,2,44,no,action,constant,long,NA,0.4859671592712402,2.8,right,1,1,8,0.6843991279602051,0,NA,NA,0.61,1,right,2.8,1,2.8,2.8,7.839999999999999,different,left,0.4471580313422192,0.447158031342219,0.4471580313422192,-0.16469055249492362,1.4611357015904114,1.9904262966555808,1.8960624818429386,0.8979069767441858,0.8062369388858839,0.9031652989449002
1,2,45,no,action,constant,long,NA,0.4222378730773926,2.8,right,1,1,8,0.4691338539123535,0,NA,NA,0.42,1,right,2.8,1,2.8,2.8,7.839999999999999,same,right,0.4471580313422192,0.447158031342219,0.4471580313422192,-0.32870322610885194,2.131587800923926,-0.06201741908023523,0.03861249745871344,0.8979069767441858,0.8062369388858839,0.9031652989449002
1,2,47,no,action,constant,long,NA,1.1873958110809326,2.8,right,1,1,8,0.51129913330078125,0,NA,NA,0.57,1,right,2.8,1,2.8,2.8,7.839999999999999,same,right,0.4471580313422192,0.447158031342219,0.4471580313422192,-0.29132494344206694,1.9558022591282809,0.3400068418499599,0.4619230199074673,0.8979069767441858,0.8062369388858839,0.9031652989449002
1,2,48,no,action,constant,long,NA,0.9988641738891602,2.8,left,1,1,7,0.4607210159301758,0,NA,NA,0.27,1,right,2.8,1,2.8,2.8,7.839999999999999,different,right,0.4471580313422192,0.447158031342219,0.4471580313422192,-0.3365619768197396,2.170510928356596,-0.1422295040270437,-0.05038816367055039,0.8979069767441858,0.8062369388858839,0.9031652989449002
1,2,49,no,action,constant,long,NA,0.7226691246032715,2.8,left,1,1,7,0.3928918838500976,0,NA,NA,0.36,1,right,2.8,1,2.8,2.8,7.839999999999999,same,left,0.4471580313422192,0.447158031342219,0.4471580313422192,-0.40572694251810826,2.5452294666935296,-0.7889454060569491,-0.8336841226083257,0.8979069767441858,0.8062369388858839,0.9031652989449002
1,2,50,no,action,constant,long,NA,0.482651948928833,2.8,right,1,1,8,0.5674400329589844,0,NA,NA,0.51,1,right,2.8,1,2.8,2.8,7.839999999999999,different,left,0.4471580313422192,0.447158031342219,0.4471580313422192,-0.24608002793411907,1.7623007576419654,0.875281456898276,0.9743234689211007,0.8979069767441858,0.8062369388858839,0.9031652989449002
1,2,51,no,action,constant,long,NA,0.4531340599060058,2.8,left,1,1,7,0.6870059967041016,0,NA,NA,0.53,1,right,2.8,1,2.8,2.8,7.839999999999999,different,right,0.4471580313422192,0.447158031342219,0.4471580313422192,-0.16303947207562486,1.4555913700862602,2.015281449883728,1.91476103257971,0.8979069767441858,0.8062369388858839,0.9031652989449002
1,2,52,no,action,constant,long,NA,0.6063871383666992,2.8,right,1,1,8,0.3737428188323974,0,NA,NA,0.18,1,right,2.8,1,2.8,2.8,7.839999999999999,different,left,0.4471580313422192,0.447158031342219,0.4471580313422192,-0.4274271432064445,2.6756366934997717,-0.971521896072049,-1.0794397495458143,0.8979069767441858,0.8062369388858839,0.9031652989449002
1,2,53,no,action,constant,long,NA,0.635551929473877,2.8,left,1,1,7,0.5310351848602295,0,NA,NA,0.29,1,right,2.8,1,2.8,2.8,7.839999999999999,different,right,0.4471580313422192,0.447158031342219,0.4471580313422192,-0.27487670286502985,1.8831143933771617,0.5281799467587582,0.6481999918619749,0.8979069767441858,0.8062369388858839,0.9031652989449002
1,2,54,no,action,constant,long,NA,0.7910418510437012,2.8,right,1,1,8,0.4676718711853027,0,NA,NA,0.23,1,right,2.8,1,2.8,2.8,7.839999999999999,different,left,0.4471580313422192,0.447158031342219,0.4471580313422192,-0.33005875058834966,2.138251328790686,-0.07595667274723768,0.023261129373572678,0.8979069767441858,0.8062369388858839,0.9031652989449002
1,2,55,no,action,constant,long,NA,0.6697139739990234,2.8,right,1,1,8,0.5997729301452637,0,NA,NA,0.29,1,right,2.8,1,2.8,2.8,7.839999999999999,same,right,0.4471580313422192,0.447158031342219,0.4471580313422192,-0.2220131393664803,1.6672976550605614,1.183559008561159,1.2468819292469449,0.8979069767441858,0.8062369388858839,0.9031652989449002
1,3,1,no,action,variable,NA,NA,0.5511817932128906,1,left,1,1,7,0.6184549331665039,0,NA,NA,0.33,1,right,2.8,1,1,2.8,1,same,left,0,0,0.4471580313422192,-0.2086919419365633,1.6169326920556302,1.361682302566204,1.3977450144767027,-0.902093023255814,0.8137718226068146,0.9031652989449002
1,3,2,no,action,variable,NA,NA,0.5124239921569824,2.8,right,1,1,8,0.4268429279327392,0,NA,NA,0.59,1,right,1,1,2.8,1,7.839999999999999,different,left,0.4471580313422192,0.447158031342219,0,-0.3697319097096396,2.3427821677710385,-0.46523965565989434,-0.42603895925113267,0.8979069767441858,0.8062369388858839,-0.8968347010550997
1,3,3,no,action,variable,NA,NA,0.5287091732025146,1,left,1,1,7,0.6183950901031494,0,NA,NA,0.24,1,right,2.8,1,1,2.8,1,different,right,0,0,0.4471580313422192,-0.20873396726174642,1.6170891651697916,1.3611117297236701,1.3972690760148438,-0.902093023255814,0.8137718226068146,0.9031652989449002
1,3,4,no,action,variable,NA,NA,0.5904529094696045,2.8,right,1,1,8,0.5773019790649414,0,NA,NA,0.21,1,right,1,1,2.8,1,7.839999999999999,different,left,0.4471580313422192,0.447158031342219,0,-0.23859695368184683,1.7321956900610396,0.9693100427889915,1.0590695793695355,0.8979069767441858,0.8062369388858839,-0.8968347010550997
1,3,5,no,action,variable,NA,NA,0.6551330089569092,2.8,left,1,1,7,0.6545870304107666,0,NA,NA,0.27,1,right,2.8,1,2.8,2.8,7.839999999999999,different,right,0.4471580313422192,0.447158031342219,0.4471580313422192,-0.18403260378945188,1.527680741508856,1.7061832735349698,1.6770129896094956,0.8979069767441858,0.8062369388858839,0.9031652989449002
1,3,7,no,action,variable,NA,NA,0.5383999347686768,2.8,left,1,1,7,0.511821985244751,0,NA,NA,0.22,1,right,1,1,2.8,1,7.839999999999999,same,left,0.4471580313422192,0.447158031342219,0,-0.2908810629869192,1.9538043085855417,0.3449919663267595,0.4669499835336042,0.8979069767441858,0.8062369388858839,-0.8968347010550997
1,3,8,no,action,variable,NA,NA,0.4280738830566406,2.8,left,1,1,7,0.4919970035552978,0,NA,NA,0.79,1,right,2.8,1,2.8,2.8,7.839999999999999,same,left,0.4471580313422192,0.447158031342219,0.4471580313422192,-0.30803754223947366,2.0325327040078314,0.15597095834917526,0.272652180701864,0.8979069767441858,0.8062369388858839,0.9031652989449002
1,3,9,no,action,variable,NA,NA,0.50952911376953125,2.8,right,1,1,8,0.3937280178070068,0,NA,NA,0.16,1,right,2.8,1,2.8,2.8,7.839999999999999,different,left,0.4471580313422192,0.447158031342219,0.4471580313422192,-0.4048036795810449,2.5398243324664005,-0.7809732986515062,-0.8232281335055103,0.8979069767441858,0.8062369388858839,0.9031652989449002
1,3,10,no,action,variable,NA,NA,0.5160009860992432,1,left,1,1,7,0.5990350246429443,0,NA,NA,0.2,1,right,2.8,1,1,2.8,1,different,right,0,0,0.4471580313422192,-0.2225477843477993,1.669351471720792,1.1765234589689588,1.2408270537893342,-0.902093023255814,0.8137718226068146,0.9031652989449002
1,3,11,no,action,variable,NA,NA,0.4571239948272705,1,left,1,1,7,0.4904749393463135,0,NA,NA,0.36,1,right,1,1,1,1,1,same,left,0,0,0,-0.30938317784907615,2.038840152226253,0.14145885864106422,0.2574128044575227,-0.902093023255814,0.8137718226068146,-0.8968347010550997
1,3,12,no,action,variable,NA,NA,0.4283699989318847,2.8,right,1,1,8,0.4452250003814697,0,NA,NA,0.33,1,right,1,1,2.8,1,7.839999999999999,different,left,0.4471580313422192,0.447158031342219,0,-0.35142045704425917,2.2460553633403286,-0.2899760454632455,-0.21866103705820453,0.8979069767441858,0.8062369388858839,-0.8968347010550997
1,3,13,no,action,variable,NA,NA,0.4711308479309082,2.8,right,1,1,8,0.4912061691284179,0,NA,NA,0.53,1,right,2.8,1,2.8,2.8,7.839999999999999,same,right,0.4471580313422192,0.447158031342219,0.4471580313422192,-0.3087361874662258,2.035805050605067,0.14843075867314048,0.264739996009506,0.8979069767441858,0.8062369388858839,0.9031652989449002
1,3,14,no,action,variable,NA,NA,0.3930048942565918,2.8,left,1,1,7,0.4923410415649414,0,NA,NA,0.55,1,right,2.8,1,2.8,2.8,7.839999999999999,different,right,0.4471580313422192,0.447158031342219,0.4471580313422192,-0.3077339599163521,2.031112411066581,0.1592511838941014,0.27609026246052615,0.8979069767441858,0.8062369388858839,0.9031652989449002
1,3,15,no,action,variable,NA,NA,0.4840209484100342,2.8,right,1,1,8,0.4670679569244385,0,NA,NA,0.18,1,right,2.8,1,2.8,2.8,7.839999999999999,different,left,0.4471580313422192,0.447158031342219,0.4471580313422192,-0.3306199263500784,2.141016066665816,-0.08171468473981965,0.016905791783542852,0.8979069767441858,0.8062369388858839,0.9031652989449002
1,3,16,no,action,variable,NA,NA,0.4108889102935791,2.8,right,1,1,8,0.5631940364837646,0,NA,NA,0.34,1,right,2.8,1,2.8,2.8,7.839999999999999,same,right,0.4471580313422192,0.447158031342219,0.4471580313422192,-0.24934195247373134,1.7755869828512065,0.8347980634612837,0.9373820451173075,0.8979069767441858,0.8062369388858839,0.9031652989449002
1,3,17,no,action,variable,NA,NA,0.8009810447692871,2.8,right,1,1,8,0.6055269241333008,0,NA,NA,0.56,1,right,2.8,1,2.8,2.8,7.839999999999999,same,right,0.4471580313422192,0.447158031342219,0.4471580313422192,-0.2178665416331337,1.6514542296055854,1.2384203829902887,1.2938423117914204,0.8979069767441858,0.8062369388858839,0.9031652989449002
1,3,18,no,action,variable,NA,NA,0.7312889099121094,1,right,1,1,8,0.5300450325012207,0,NA,NA,0.26,1,right,2.8,1,1,2.8,1,same,right,0,0,0.4471580313422192,-0.2756872312747425,1.8866321513874333,0.5187393530733279,0.6390207257187526,-0.902093023255814,0.8137718226068146,0.9031652989449002
1,3,19,no,action,variable,NA,NA,0.5398960113525391,2.8,right,1,1,8,0.413874864578247,0,NA,NA,0.3,1,right,1,1,2.8,1,7.839999999999999,same,right,0.4471580313422192,0.447158031342219,0,-0.3831309483429973,2.416189253288032,-0.5888834725965493,-0.577783599173766,0.8979069767441858,0.8062369388858839,-0.8968347010550997
1,3,20,no,action,variable,NA,NA,0.6659271717071533,2.8,right,1,1,8,0.4392969608306885,0,NA,NA,0.32,1,right,2.8,1,2.8,2.8,7.839999999999999,same,right,0.4471580313422192,0.447158031342219,0.4471580313422192,-0.3572418012851627,2.2763644849922255,-0.3464968548527327,-0.28458798972049687,0.8979069767441858,0.8062369388858839,0.9031652989449002
1,3,21,no,action,variable,NA,NA,0.707097053527832,2.8,left,1,1,7,0.5681791305541992,0,NA,NA,0.42,1,right,2.8,1,2.8,2.8,7.839999999999999,different,right,0.4471580313422192,0.447158031342219,0.4471580313422192,-0.24551472212945452,1.7600083252346927,0.8823283724833553,0.980725579409941,0.8979069767441858,0.8062369388858839,0.9031652989449002
1,3,22,no,action,variable,NA,NA,0.5739479064941406,2.8,left,1,1,7,0.5164840221405029,0,NA,NA,0.25,1,right,2.8,1,2.8,2.8,7.839999999999999,same,left,0.4471580313422192,0.447158031342219,0.4471580313422192,-0.28694310919478544,1.9361683171836102,0.3894420912785787,0.5115474652314054,0.8979069767441858,0.8062369388858839,0.9031652989449002
1,3,23,no,action,variable,NA,NA,0.5725538730621338,2.8,left,1,1,7,0.5415139198303223,0,NA,NA,0.27,1,right,2.8,1,2.8,2.8,7.839999999999999,same,left,0.4471580313422192,0.447158031342219,0.4471580313422192,-0.2663903751830767,1.8466745976046923,0.6280892973651511,0.7443079868906268,0.8979069767441858,0.8062369388858839,0.9031652989449002
1,3,24,no,action,variable,NA,NA,0.6914899349212646,1,left,1,1,7,0.4651069641113281,0,NA,NA,0.31,1,right,2.8,1,1,2.8,1,same,left,0,0,0.4471580313422192,-0.33244715768805755,2.15004305925774,-0.10041174302603796,-0.0037876750407640435,-0.902093023255814,0.8137718226068146,0.9031652989449002
1,3,25,no,action,variable,NA,NA,0.5030300617218018,1,right,1,1,8,0.4850649833679199,0,NA,NA,0.29,1,right,1,1,1,1,1,different,left,0,0,0,-0.3142000757738262,2.0615794466480875,0.08987770975685998,0.20286124586170232,-0.902093023255814,0.8137718226068146,-0.8968347010550997
1,3,26,no,action,variable,NA,NA,0.5048630237579346,1,left,1,1,7,0.7193801403045654,0,NA,NA,0.65,1,right,1,1,1,1,1,different,right,0,0,0,-0.14304155577965894,1.3900856361931648,2.32395226490023,2.1412382217699513,-0.902093023255814,0.8137718226068146,-0.8968347010550997
1,3,27,no,action,variable,NA,NA,0.5011398792266846,2.8,left,1,1,7,0.4651839733123779,0,NA,NA,0.29,1,right,1,1,2.8,1,7.839999999999999,same,left,0.4471580313422192,0.447158031342219,0,-0.3323752561574661,2.1496871288996133,-0.09967749988604475,-0.002973387376698187,0.8979069767441858,0.8062369388858839,-0.8968347010550997
1,3,28,no,action,variable,NA,NA,0.693152904510498,2.8,right,1,1,8,0.4261670112609863,0,NA,NA,0.43,1,right,2.8,1,2.8,2.8,7.839999999999999,different,left,0.4471580313422192,0.447158031342219,0.4471580313422192,-0.37042017119105636,2.3464979071024255,-0.47168417362237813,-0.43383354761885295,0.8979069767441858,0.8062369388858839,0.9031652989449002
1,3,29,no,action,variable,NA,NA,0.4637918472290039,2.8,right,1,1,8,0.4804439544677734,0,NA,NA,0.63,1,right,2.8,1,2.8,2.8,7.839999999999999,same,right,0.4471580313422192,0.447158031342219,0.4471580313422192,-0.3183572670693512,2.0814082281621813,0.04581857496008335,0.15578089080858287,0.8979069767441858,0.8062369388858839,0.9031652989449002
1,3,30,no,action,variable,NA,NA,0.6220300197601318,1,right,1,1,8,0.6705260276794434,0,NA,NA,0.38,1,right,2.8,1,1,2.8,1,same,right,0,0,0.4471580313422192,-0.17358435956007828,1.4913664178865662,1.8581534179250676,1.7953397667607245,-0.902093023255814,0.8137718226068146,0.9031652989449002
1,3,31,no,action,variable,NA,NA,0.5503809452056885,1,right,1,1,8,0.6475169658660889,0,NA,NA,0.53,1,right,1,1,1,1,1,same,right,0,0,0,-0.1887488479640946,1.5443610788830004,1.6387738429672474,1.623601338695475,-0.902093023255814,0.8137718226068146,-0.8968347010550997
1,3,32,no,action,variable,NA,NA,0.9871959686279296,1,left,1,1,7,0.5586049556732178,0,NA,NA,0.21,1,right,1,1,1,1,1,different,right,0,0,0,-0.2528952157671551,1.7901738784161396,0.791043537273669,0.8971411984592077,-0.902093023255814,0.8137718226068146,-0.8968347010550997
1,3,33,no,action,variable,NA,NA,0.71846604347229,2.8,right,1,1,8,0.3594791889190674,0,NA,NA,0.56,1,right,1,1,2.8,1,7.839999999999999,different,left,0.4471580313422192,0.447158031342219,0,-0.4443262468644804,2.7818022039243515,-1.1075182740697747,-1.2708227636390654,0.8979069767441858,0.8062369388858839,-0.8968347010550997
1,3,34,no,action,variable,NA,NA,0.5895400047302246,1,right,1,1,8,0.4178380966186523,0,NA,NA,0.77,1,right,2.8,1,1,2.8,1,same,right,0,0,0.4471580313422192,-0.3789919655118129,2.393271480251521,-0.5510960926704938,-0.5309094556960074,-0.902093023255814,0.8137718226068146,0.9031652989449002
1,3,35,no,action,variable,NA,NA,0.5429489612579346,1,left,1,1,7,0.5192091464996338,0,NA,NA,0.17,1,right,1,1,1,1,1,different,right,0,0,0,-0.2846576655156008,1.9260061320986481,0.4154247510003386,0.5374302048555709,-0.902093023255814,0.8137718226068146,-0.8968347010550997
1,3,36,no,action,variable,NA,NA,0.56140899658203125,1,right,1,1,8,0.5658881664276123,0,NA,NA,0.31,1,right,1,1,1,1,1,different,left,0,0,0,-0.2472693877203065,1.767133612835353,0.8604852073681855,0.9608539225281112,-0.902093023255814,0.8137718226068146,-0.8968347010550997
1,3,37,no,action,variable,NA,NA,0.4257490634918213,2.8,right,1,1,8,0.3585929870605469,0,NA,NA,0.16,1,right,1,1,2.8,1,7.839999999999999,same,right,0.4471580313422192,0.447158031342219,0,-0.4453982081109473,2.78867695711839,-1.115967753176142,-1.2829627669487937,0.8979069767441858,0.8062369388858839,-0.8968347010550997
1,3,38,no,action,variable,NA,NA,0.4646217823028564,1,right,1,1,8,0.4557909965515136,0,NA,NA,0.23,1,right,2.8,1,1,2.8,1,same,right,0,0,0.4471580313422192,-0.3412342578888924,2.19398805058884,-0.18923470417809862,-0.10330193068446467,-0.902093023255814,0.8137718226068146,0.9031652989449002
1,3,39,no,action,variable,NA,NA,0.4696779251098633,1,right,1,1,8,0.3976190090179443,0,NA,NA,0.45,1,right,1,1,1,1,1,same,right,0,0,0,-0.4005328614118964,2.514970304035114,-0.7438746978939277,-0.7748609496361349,-0.902093023255814,0.8137718226068146,-0.8968347010550997
1,3,40,no,action,variable,NA,NA,0.4492650032043457,2.8,right,1,1,8,0.4215929508209228,0,NA,NA,0.22,1,right,1,1,2.8,1,7.839999999999999,same,right,0.4471580313422192,0.447158031342219,0,-0.3751066592878462,2.3719561677983636,-0.5152954882997153,-0.4869082097799599,0.8979069767441858,0.8062369388858839,-0.8968347010550997
1,3,41,no,action,variable,NA,NA,0.4334070682525635,1,left,1,1,7,0.4996809959411621,0,NA,NA,0.51,1,right,2.8,1,1,2.8,1,different,right,0,0,0.4471580313422192,-0.30130716749724207,2.0012768308638074,0.2292338752496658,0.3488739395720664,-0.902093023255814,0.8137718226068146,0.9031652989449002
1,3,42,no,action,variable,NA,NA,0.5033619403839111,1,right,1,1,8,0.4032239913940429,0,NA,NA,0.43,1,right,1,1,1,1,1,different,left,0,0,0,-0.3944536357389439,2.4800111633803286,-0.6904340725746929,-0.7060134796054106,-0.902093023255814,0.8137718226068146,-0.8968347010550997
1,3,43,no,action,variable,NA,NA,0.4848580360412597,1,right,1,1,8,0.4446158409118652,0,NA,NA,0.29,1,right,1,1,1,1,1,same,right,0,0,0,-0.35201506818211303,2.249132639874221,-0.29578406782449684,-0.22539503159890173,-0.902093023255814,0.8137718226068146,-0.8968347010550997
1,3,44,no,action,variable,NA,NA,0.4724700450897217,1,right,1,1,8,0.3902430534362793,0,NA,NA,0.47,1,right,1,1,1,1,1,same,right,0,0,0,-0.40866481890268225,2.56250557490906,-0.8142006422344422,-0.86695568830144365,-0.902093023255814,0.8137718226068146,-0.8968347010550997
1,3,45,no,action,variable,NA,NA,0.5719280242919922,2.8,left,1,1,7,0.7685708999633789,0,NA,NA,0.43,1,right,1,1,2.8,1,7.839999999999999,different,right,0.4471580313422192,0.447158031342219,0,-0.11431606304702491,1.3011161365173314,2.792960868264467,2.466555557631789,0.8979069767441858,0.8062369388858839,-0.8968347010550997
1,3,46,no,action,variable,NA,NA,0.4042999744415283,2.8,left,1,1,7,0.5372340679168701,0,NA,NA,0.24,1,right,2.8,1,2.8,2.8,7.839999999999999,same,left,0.4471580313422192,0.447158031342219,0.4471580313422192,-0.26983645497730047,1.861386050734848,0.5872831097303906,0.7052809975798191,0.8979069767441858,0.8062369388858839,0.9031652989449002
1,3,47,no,action,variable,NA,NA,0.5061688423156738,2.8,left,1,1,7,0.4377129077911377,0,NA,NA,0.31,1,right,2.8,1,2.8,2.8,7.839999999999999,same,left,0.4471580313422192,0.447158031342219,0.4471580313422192,-0.35881064621345915,2.2846024921823127,-0.3615999861905606,-0.3023552202847942,0.8979069767441858,0.8062369388858839,0.9031652989449002
1,3,48,no,action,variable,NA,NA,0.9993560314178468,1,left,1,1,7,0.5374948978424072,0,NA,NA,0.35,1,right,2.8,1,1,2.8,1,same,left,0,0,0.4471580313422192,-0.26962565392287835,1.8604827767001402,0.5897699889723508,0.7076683278184945,-0.902093023255814,0.8137718226068146,0.9031652989449002
1,3,49,no,action,variable,NA,NA,0.4652750492095947,1,left,1,1,7,0.5087630748748779,0,NA,NA,0.36,1,right,1,1,1,1,1,same,left,0,0,0,-0.293484416542064,1.9655514509301484,0.31582682859883476,0.4374669020509323,-0.902093023255814,0.8137718226068146,-0.8968347010550997
1,3,50,no,action,variable,NA,NA,0.5944609642028809,1,left,1,1,7,0.480557918548584,0,NA,NA,0.28,1,right,1,1,1,1,1,same,left,0,0,0,-0.31825426212617064,2.080914623195208,0.04690516387933158,0.15694742584448246,-0.902093023255814,0.8137718226068146,-0.8968347010550997
1,3,51,no,action,variable,NA,NA,0.3884310722351074,1,left,1,1,7,0.4941191673278808,0,NA,NA,0.4,1,right,1,1,1,1,1,same,left,0,0,0,-0.30616829910941645,2.023803297103093,0.17620469887265605,0.2938214327250822,-0.902093023255814,0.8137718226068146,-0.8968347010550997
1,3,52,no,action,variable,NA,NA,0.4179141521453857,1,right,1,1,8,0.4494490623474121,0,NA,NA,0.28,1,right,1,1,1,1,1,different,left,0,0,0,-0.34731952127217985,2.2249462370154567,-0.24970178629522968,-0.1722177780223823,-0.902093023255814,0.8137718226068146,-0.8968347010550997
1,3,53,no,action,variable,NA,NA,0.3572309017181396,1,left,1,1,7,0.5041642189025879,0,NA,NA,0.31,1,right,1,1,1,1,1,different,right,0,0,0,-0.29742797993005776,1.9834807043163352,0.271979101269611,0.3928058914592166,-0.902093023255814,0.8137718226068146,-0.8968347010550997
1,3,54,no,action,variable,NA,NA,0.4020259380340576,2.8,right,1,1,8,0.4538002014160156,0,NA,NA,0.24,1,right,1,1,2.8,1,7.839999999999999,different,left,0.4471580313422192,0.447158031342219,0,-0.34313531569250033,2.2036129487815335,-0.20821591228629543,-0.12483148513790301,0.8979069767441858,0.8062369388858839,-0.8968347010550997
1,3,55,no,action,variable,NA,NA,0.5675389766693115,1,left,1,1,7,0.5413169860839844,0,NA,NA,0.46,1,right,2.8,1,1,2.8,1,different,right,0,0,0.4471580313422192,-0.2665483448897241,1.8473464267844937,0.6262116353415138,0.7425189737449953,-0.902093023255814,0.8137718226068146,0.9031652989449002
1,4,0,no,external,constant,long,1.3,NA,2.8,left,1,1,7,0.7205390930175781,0,NA,NA,0.51,1,right,NA,2,2.8,NA,7.839999999999999,same,left,0.4471580313422192,0.447158031342219,NA,-0.14234245146173746,1.387849749847791,2.3350022831773494,2.1491556056878727,0.8979069767441858,0.8062369388858839,NA
1,4,1,no,external,constant,long,1.5,NA,2.8,right,1,1,8,0.522089958190918,0,NA,NA,0.34,1,right,2.8,2,2.8,2.8,7.839999999999999,different,left,0.4471580313422192,0.447158031342219,0.4471580313422192,-0.28225465987147713,1.9153787279592147,0.44289180939211686,0.5646443383600299,0.8979069767441858,0.8062369388858839,0.9031652989449002
1,4,2,no,external,constant,long,1.3,NA,2.8,left,1,1,7,0.4044837951660156,0,NA,NA,0.17,1,right,2.8,2,2.8,2.8,7.839999999999999,different,right,0.4471580313422192,0.447158031342219,0.4471580313422192,-0.39309887284269224,2.4722869295408034,-0.678422491299996,-0.6906707364805084,0.8979069767441858,0.8062369388858839,0.9031652989449002
1,4,3,no,external,constant,long,1.1,NA,2.8,left,1,1,7,0.4931468963623047,0,NA,NA,0.22,1,right,2.8,2,2.8,2.8,7.839999999999999,same,left,0.4471580313422192,0.447158031342219,0.4471580313422192,-0.3070236957796793,2.027793356049677,0.1669345950804136,0.2841340317650681,0.8979069767441858,0.8062369388858839,0.9031652989449002
1,4,4,no,external,constant,long,1.7,NA,2.8,left,1,1,7,0.3511121273040771,0,NA,NA,0.26,1,right,2.8,2,2.8,2.8,7.839999999999999,same,left,0.4471580313422192,0.447158031342219,0.4471580313422192,-0.4545541698787593,2.84809302281365,-1.1872939048900237,-1.3866543943572787,0.8979069767441858,0.8062369388858839,0.9031652989449002
1,4,5,no,external,constant,long,1.2,NA,2.8,left,1,1,7,0.3958570957183838,0,NA,NA,0.17,1,right,2.8,2,2.8,2.8,7.839999999999999,same,left,0.4471580313422192,0.447158031342219,0.4471580313422192,-0.4024615659479144,2.52616414058524,-0.7606736353693258,-0.7967036044223204,0.8979069767441858,0.8062369388858839,0.9031652989449002
1,4,6,no,external,constant,long,1.5,NA,2.8,right,1,1,8,0.509850025177002,0,NA,NA,0.21,1,right,2.8,2,2.8,2.8,7.839999999999999,different,left,0.4471580313422192,0.447158031342219,0.4471580313422192,-0.29255755491527935,1.9613610878078025,0.32619034090605287,0.44796364645648923,0.8979069767441858,0.8062369388858839,0.9031652989449002
1,4,7,no,external,constant,long,1.4,NA,2.8,right,1,1,8,0.4458150863647461,0,NA,NA,0.19,1,right,2.8,2,2.8,2.8,7.839999999999999,same,right,0.4471580313422192,0.447158031342219,0.4471580313422192,-0.3508452390991604,2.2430824585910143,-0.28434987898806124,-0.2121466711887944,0.8979069767441858,0.8062369388858839,0.9031652989449002
1,4,8,no,external,constant,long,1.7,NA,2.8,left,1,1,7,0.4537639617919922,0,NA,NA,0.33,1,right,2.8,2,2.8,2.8,7.839999999999999,different,right,0.4471580313422192,0.447158031342219,0.4471580313422192,-0.34316999901162204,2.2037889391895016,-0.2085614384698219,-0.12522427509212727,0.8979069767441858,0.8062369388858839,0.9031652989449002
1,4,9,no,external,constant,long,1.6,NA,2.8,right,1,1,8,0.4504411220550537,0,NA,NA,0.56,1,right,2.8,2,2.8,2.8,7.839999999999999,different,left,0.4471580313422192,0.447158031342219,0.4471580313422192,-0.3463619683646003,2.220045975015972,-0.24024300702119267,-0.16137345365378278,0.8979069767441858,0.8062369388858839,0.9031652989449002
1,4,11,no,external,constant,long,1.3,NA,2.8,right,1,1,8,0.4969179630279541,0,NA,NA,0.18,1,right,2.8,2,2.8,2.8,7.839999999999999,different,left,0.4471580313422192,0.447158031342219,0.4471580313422192,-0.30371530371147276,2.0124046108265663,0.2028897769543486,0.3216017021592008,0.8979069767441858,0.8062369388858839,0.9031652989449002
1,4,12,no,external,constant,long,1.1,NA,2.8,left,1,1,7,0.5561649799346924,0,NA,NA,0.45,1,right,2.8,2,2.8,2.8,7.839999999999999,different,right,0.4471580313422192,0.447158031342219,0.4471580313422192,-0.25479636085111584,1.7980276286317505,0.7677796230486043,0.8756106555523387,0.8979069767441858,0.8062369388858839,0.9031652989449002
1,4,13,no,external,constant,long,1.6,NA,2.8,right,1,1,8,0.4478559494018554,0,NA,NA,0.26,1,right,2.8,2,2.8,2.8,7.839999999999999,different,left,0.4471580313422192,0.447158031342219,0.4471580313422192,-0.34886165216240334,2.2328608145890962,-0.2648912991789397,-0.18968247105401145,0.8979069767441858,0.8062369388858839,0.9031652989449002
1,4,14,no,external,constant,long,1.3,NA,2.8,left,1,1,7,0.3301618099212646,0,NA,NA,0.16,1,right,2.8,2,2.8,2.8,7.839999999999999,different,right,0.4471580313422192,0.447158031342219,0.4471580313422192,-0.4812731633556726,3.0288179006483977,-1.3870444101455346,-1.6892480471702171,0.8979069767441858,0.8062369388858839,0.9031652989449002
1,4,15,no,external,constant,long,1.1,NA,2.8,left,1,1,7,0.5065550804138184,0,NA,NA,0.26,1,right,2.8,2,2.8,2.8,7.839999999999999,same,left,0.4471580313422192,0.447158031342219,0.4471580313422192,-0.29537332459945564,1.9741189826446381,0.2947747365880545,0.41607494395161965,0.8979069767441858,0.8062369388858839,0.9031652989449002
1,4,16,no,external,constant,long,1.3,NA,2.8,right,1,1,8,0.5700039863586426,0,NA,NA,0.38,1,right,2.8,2,2.8,2.8,7.839999999999999,different,left,0.4471580313422192,0.447158031342219,0.4471580313422192,-0.2441221070511796,1.754373695503959,0.8997274343827735,0.9964969999861575,0.8979069767441858,0.8062369388858839,0.9031652989449002
1,4,17,no,external,constant,long,1.6,NA,2.8,left,1,1,7,0.4903349876403808,0,NA,NA,0.3,1,right,2.8,2,2.8,2.8,7.839999999999999,different,right,0.4471580313422192,0.447158031342219,0.4471580313422192,-0.30950711675377046,2.0394220792039732,0.1401244910770503,0.25600919148349766,0.8979069767441858,0.8062369388858839,0.9031652989449002
1,4,18,no,external,constant,long,1.4,NA,2.8,left,1,1,7,0.4226770401000976,0,NA,NA,0.63,1,right,2.8,2,2.8,2.8,7.839999999999999,same,left,0.4471580313422192,0.447158031342219,0.4471580313422192,-0.37399134249189625,2.3658725341768787,-0.5049592543754071,-0.47427720316581756,0.8979069767441858,0.8062369388858839,0.9031652989449002
1,4,19,no,external,constant,long,1.2,NA,2.8,right,1,1,8,0.4658379554748535,0,NA,NA,0.35,1,right,2.8,2,2.8,2.8,7.839999999999999,different,left,0.4471580313422192,0.447158031342219,0.4471580313422192,-0.33176512897923804,2.146669218871714,-0.093442116192537,0.00393632693196399,0.8979069767441858,0.8062369388858839,0.9031652989449002
1,4,20,no,external,constant,long,1.7,NA,2.8,right,1,1,8,0.5693380832672119,0,NA,NA,0.25,1,right,2.8,2,2.8,2.8,7.839999999999999,same,right,0.4471580313422192,0.447158031342219,0.4471580313422192,-0.24462976507370016,1.7564256272150025,0.89337839076047465,0.9907477528991734,0.8979069767441858,0.8062369388858839,0.9031652989449002
1,4,21,no,external,constant,long,1.1,NA,2.8,left,1,1,7,0.5112051963806152,0,NA,NA,0.25,1,right,2.8,2,2.8,2.8,7.839999999999999,different,right,0.4471580313422192,0.447158031342219,0.4471580313422192,-0.2914047402409765,1.956161649138353,0.33911120161108205,0.46101931801893287,0.8979069767441858,0.8062369388858839,0.9031652989449002
1,4,22,no,external,constant,long,1,NA,2.8,left,1,1,7,0.3875670433044433,0,NA,NA,0.41,1,right,2.8,2,2.8,2.8,7.839999999999999,same,left,0.4471580313422192,0.447158031342219,0.4471580313422192,-0.41165316020628967,2.580198748257539,-0.8397150230495812,-0.9007987711889661,0.8979069767441858,0.8062369388858839,0.9031652989449002
1,4,23,no,external,constant,long,1.2,NA,2.8,left,1,1,7,0.394575834274292,0,NA,NA,0.16,1,right,2.8,2,2.8,2.8,7.839999999999999,same,left,0.4471580313422192,0.447158031342219,0.4471580313422192,-0.4038695165564659,2.534367067459188,-0.772889804515847,-0.8126487004825416,0.8979069767441858,0.8062369388858839,0.9031652989449002
1,4,24,no,external,constant,long,1.2,NA,2.8,right,1,1,8,0.4281151294708252,0,NA,NA,0.54,1,right,2.8,2,2.8,2.8,7.839999999999999,different,left,0.4471580313422192,0.447158031342219,0.4471580313422192,-0.36843942404705077,2.3358202762795544,-0.4531098680592542,-0.4114015082487573,0.8979069767441858,0.8062369388858839,0.9031652989449002
1,4,25,no,external,constant,long,1.2,NA,2.8,left,1,1,7,0.5552258491516113,0,NA,NA,0.19,1,right,2.8,2,2.8,2.8,7.839999999999999,different,right,0.4471580313422192,0.447158031342219,0.4471580313422192,-0.2555303230240591,1.8010688831004653,0.7588254938584019,0.8672985050542551,0.8979069767441858,0.8062369388858839,0.9031652989449002
1,4,26,no,external,constant,long,1.1,NA,2.8,right,1,1,8,0.3916480541229248,0,NA,NA,0.19,1,right,2.8,2,2.8,2.8,7.839999999999999,different,left,0.4471580313422192,0.447158031342219,0.4471580313422192,-0.4071040268790038,2.553312826331915,-0.8008046830270642,-0.849279657198916,0.8979069767441858,0.8062369388858839,0.9031652989449002
1,4,27,no,external,constant,long,1.6,NA,2.8,right,1,1,8,0.4602930545806885,0,NA,NA,0.21,1,right,2.8,2,2.8,2.8,7.839999999999999,same,right,0.4471580313422192,0.447158031342219,0.4471580313422192,-0.33696557818019146,2.1725289791977556,-0.14630989547066217,-0.05495896496382989,0.8979069767441858,0.8062369388858839,0.9031652989449002
1,4,28,no,external,constant,long,1.6,NA,2.8,left,1,1,7,0.5099959373474121,0,NA,NA,0.3,1,right,2.8,2,2.8,2.8,7.839999999999999,different,right,0.4471580313422192,0.447158031342219,0.4471580313422192,-0.2924332834993742,1.9607999334292625,0.3275815384344621,0.44937102513306504,0.8979069767441858,0.8062369388858839,0.9031652989449002
1,4,29,no,external,constant,long,1.3,NA,2.8,right,1,1,8,0.474606990814209,0,NA,NA,0.56,1,right,2.8,2,2.8,2.8,7.839999999999999,different,left,0.4471580313422192,0.447158031342219,0.4471580313422192,-0.3236658690481474,2.1070064692567136,-0.009833872573435508,0.09566076444671517,0.8979069767441858,0.8062369388858839,0.9031652989449002
1,4,30,no,external,constant,long,1.5,NA,2.8,left,1,1,7,0.5452311038970947,0,NA,NA,0.64,1,right,2.8,2,2.8,2.8,7.839999999999999,different,right,0.4471580313422192,0.447158031342219,0.4471580313422192,-0.2634193768550405,1.8340846530075015,0.6635307363609481,0.7779546598971674,0.8979069767441858,0.8062369388858839,0.9031652989449002
1,4,31,no,external,constant,long,1,NA,2.8,right,1,1,8,0.4568290710449219,0,NA,NA,0.16,1,right,2.8,2,2.8,2.8,7.839999999999999,different,left,0.4471580313422192,0.447158031342219,0.4471580313422192,-0.3402462668623273,2.189002546866519,-0.1793371975789255,-0.09211289342027813,0.8979069767441858,0.8062369388858839,0.9031652989449002
1,4,32,no,external,constant,long,1.3,NA,2.8,right,1,1,8,0.372323989868164,0,NA,NA,0.4,1,right,2.8,2,2.8,2.8,7.839999999999999,same,right,0.4471580313422192,0.447158031342219,0.4471580313422192,-0.4290789800810808,2.6858328423964553,-0.9850497007968253,-1.0981468671690586,0.8979069767441858,0.8062369388858839,0.9031652989449002
1,4,33,no,external,constant,long,1.3,NA,2.8,left,1,1,7,0.3345389366149902,0,NA,NA,0.23,1,right,2.8,2,2.8,2.8,7.839999999999999,different,right,0.4471580313422192,0.447158031342219,0.4471580313422192,-0.47555332790234495,2.9891886729790946,-1.3453107574918346,-1.6244706855227111,0.8979069767441858,0.8062369388858839,0.9031652989449002
1,4,34,no,external,constant,long,1.7,NA,2.8,left,1,1,7,0.5891890525817871,0,NA,NA,0.25,1,right,2.8,2,2.8,2.8,7.839999999999999,same,left,0.4471580313422192,0.447158031342219,0.4471580313422192,-0.22974533115644374,1.697248099940192,1.0826471773828241,1.1593145528786362,0.8979069767441858,0.8062369388858839,0.9031652989449002
1,4,35,no,external,constant,long,1.2,NA,2.8,left,1,1,7,0.5035068988800049,0,NA,NA,0.24,1,right,2.8,2,2.8,2.8,7.839999999999999,same,left,0.4471580313422192,0.447158031342219,0.4471580313422192,-0.29799457451455136,1.9860701059397374,0.2657118927960421,0.3863891854880846,0.8979069767441858,0.8062369388858839,0.9031652989449002
1,4,36,no,external,constant,long,1.3,NA,2.8,right,1,1,8,0.5945339202880859,0,NA,NA,0.69,1,right,2.8,2,2.8,2.8,7.839999999999999,different,left,0.4471580313422192,0.447158031342219,0.4471580313422192,-0.22582336228382127,1.681989817360534,1.1336077430558262,1.2037310047337895,0.8979069767441858,0.8062369388858839,0.9031652989449002
1,4,37,no,external,constant,long,1.2,NA,2.8,right,1,1,8,0.7063250541687012,0,NA,NA,0.47,1,right,2.8,2,2.8,2.8,7.839999999999999,same,right,0.4471580313422192,0.447158031342219,0.4471580313422192,-0.15099538854674505,1.4157787467654468,2.199478730483396,2.051160752611713,0.8979069767441858,0.8062369388858839,0.9031652989449002
1,4,38,no,external,constant,long,1.5,NA,2.8,right,1,1,8,0.5065350532531738,0,NA,NA,0.2,1,right,2.8,2,2.8,2.8,7.839999999999999,same,right,0.4471580313422192,0.447158031342219,0.4471580313422192,-0.29539049520465294,1.9741970344946393,0.2945837879076846,0.41588048617190776,0.8979069767441858,0.8062369388858839,0.9031652989449002
1,4,39,no,external,constant,long,1.6,NA,2.8,right,1,1,8,0.4263648986816406,0,NA,NA,0.54,1,right,2.8,2,2.8,2.8,7.839999999999999,same,right,0.4471580313422192,0.447158031342219,0.4471580313422192,-0.3702185566464993,2.345408834292156,-0.469797418804437,-0.4315502549659894,0.8979069767441858,0.8062369388858839,0.9031652989449002
1,4,40,no,external,constant,long,1.2,NA,2.8,left,1,1,7,0.6705009937286377,0,NA,NA,0.18,1,right,2.8,2,2.8,2.8,7.839999999999999,different,right,0.4471580313422192,0.447158031342219,0.4471580313422192,-0.17360057415758132,1.491422099822742,1.8579147320746052,1.7951561358057797,0.8979069767441858,0.8062369388858839,0.9031652989449002
1,4,41,no,external,constant,long,1.4,NA,2.8,right,1,1,8,0.3872251510620117,0,NA,NA,0.52,1,right,2.8,2,2.8,2.8,7.839999999999999,different,left,0.4471580313422192,0.447158031342219,0.4471580313422192,-0.4120364421366204,2.582476880071915,-0.8429747898073239,-0.90513945413633,0.8979069767441858,0.8062369388858839,0.9031652989449002
1,4,42,no,external,constant,long,1.2,NA,2.8,left,1,1,7,0.584453821182251,0,NA,NA,0.49,1,right,2.8,2,2.8,2.8,7.839999999999999,different,right,0.4471580313422192,0.447158031342219,0.4471580313422192,-0.2332497975868434,1.710999164959123,1.0374991804682243,1.1196263326149791,0.8979069767441858,0.8062369388858839,0.9031652989449002
1,4,43,no,external,constant,long,1.6,NA,2.8,right,1,1,8,0.4727640151977539,0,NA,NA,0.38,1,right,2.8,2,2.8,2.8,7.839999999999999,different,left,0.4471580313422192,0.447158031342219,0.4471580313422192,-0.3253555875324726,2.115220211042727,-0.02740569756461698,0.07652463610268555,0.8979069767441858,0.8062369388858839,0.9031652989449002
1,4,44,no,external,constant,long,1.6,NA,2.8,right,1,1,8,0.4290769100189209,0,NA,NA,0.44,1,right,2.8,2,2.8,2.8,7.839999999999999,same,right,0.4471580313422192,0.447158031342219,0.4471580313422192,-0.3674648555935929,2.3305845097931353,-0.44393978500434783,-0.4003644821533362,0.8979069767441858,0.8062369388858839,0.9031652989449002
1,4,45,no,external,constant,long,1,NA,2.8,right,1,1,8,0.3948400020599365,0,NA,NA,0.33,1,right,2.8,2,2.8,2.8,7.839999999999999,same,right,0.4471580313422192,0.447158031342219,0.4471580313422192,-0.4035788544982604,2.53267144864466,-0.7703711004938252,-0.8093569412326086,0.8979069767441858,0.8062369388858839,0.9031652989449002
1,4,46,no,external,constant,long,1.3,NA,2.8,left,1,1,7,0.5057699680328369,0,NA,NA,0.33,1,right,2.8,2,2.8,2.8,7.839999999999999,different,right,0.4471580313422192,0.447158031342219,0.4471580313422192,-0.29604696207117476,1.9771834296319377,0.2872890936778396,0.4084459730693412,0.8979069767441858,0.8062369388858839,0.9031652989449002
1,4,47,no,external,constant,long,1.2,NA,2.8,left,1,1,7,0.437047004699707,0,NA,NA,0.51,1,right,2.8,2,2.8,2.8,7.839999999999999,same,left,0.4471580313422192,0.447158031342219,0.4471580313422192,-0.35947185185359753,2.288083408069792,-0.36794902981285993,-0.3098434001850913,0.8979069767441858,0.8062369388858839,0.9031652989449002
1,4,48,no,external,constant,long,1.5,NA,2.8,right,1,1,8,0.5826687812805176,0,NA,NA,0.32,1,right,2.8,2,2.8,2.8,7.839999999999999,different,left,0.4471580313422192,0.447158031342219,0.4471580313422192,-0.23457825028261628,1.7162409110066328,1.0204797427309702,1.1045815535460952,0.8979069767441858,0.8062369388858839,0.9031652989449002
1,4,49,no,external,constant,long,1.1,NA,2.8,right,1,1,8,0.4776680469512939,0,NA,NA,0.32,1,right,2.8,2,2.8,2.8,7.839999999999999,same,right,0.4471580313422192,0.447158031342219,0.4471580313422192,-0.32087380936949667,2.09350406915949,0.0193517239416712,0.12728095020575803,0.8979069767441858,0.8062369388858839,0.9031652989449002
1,4,50,no,external,constant,long,1.6,NA,2.8,left,1,1,7,0.4167778491973877,0,NA,NA,0.41,1,right,2.8,2,2.8,2.8,7.839999999999999,different,right,0.4471580313422192,0.447158031342219,0.4471580313422192,-0.3800953708673122,2.3993597594635983,-0.5612050067372182,-0.5434055647781997,0.8979069767441858,0.8062369388858839,0.9031652989449002
1,4,51,no,external,constant,long,1.1,NA,2.8,right,1,1,8,0.4560451507568359,0,NA,NA,0.55,1,right,2.8,2,2.8,2.8,7.839999999999999,different,left,0.4471580313422192,0.447158031342219,0.4471580313422192,-0.3409921578754016,2.1927653398801334,-0.1868114744962617,-0.10056013850237751,0.8979069767441858,0.8062369388858839,0.9031652989449002
1,4,52,no,external,constant,long,1.4,NA,2.8,right,1,1,8,0.4227049350738525,0,NA,NA,0.33,1,right,2.8,2,2.8,2.8,7.839999999999999,same,right,0.4471580313422192,0.447158031342219,0.4471580313422192,-0.3739626817597426,2.3657164064698843,-0.5046932901420348,-0.473952619246062,0.8979069767441858,0.8062369388858839,0.9031652989449002
1,4,53,no,external,constant,long,1.4,NA,2.8,left,1,1,7,0.6210451126098633,0,NA,NA,0.55,1,right,2.8,2,2.8,2.8,7.839999999999999,different,right,0.4471580313422192,0.447158031342219,0.4471580313422192,-0.20687685160131808,1.610188985784989,1.3863783318940428,1.4183009839671656,0.8979069767441858,0.8062369388858839,0.9031652989449002
1,4,54,no,external,constant,long,1.6,NA,2.8,left,1,1,7,0.5069980621337891,0,NA,NA,0.5,1,right,2.8,2,2.8,2.8,7.839999999999999,same,left,0.4471580313422192,0.447158031342219,0.4471580313422192,-0.2949937006394658,1.9723941266980922,0.2989983395419503,0.42037420024089195,0.8979069767441858,0.8062369388858839,0.9031652989449002
1,4,55,no,external,constant,long,1.1,NA,2.8,right,1,1,8,0.4067080020904541,0,NA,NA,0.38,1,right,2.8,2,2.8,2.8,7.839999999999999,different,left,0.4471580313422192,0.447158031342219,0.4471580313422192,-0.39071728264940975,2.4587664733913805,-0.6572158217860591,-0.6636991337997598,0.8979069767441858,0.8062369388858839,0.9031652989449002
1,5,0,no,external,constant,short,1.7,NA,1,left,1,1,7,0.4294919967651367,0,NA,NA,0.55,1,right,NA,2,1,NA,1,different,right,0,0,NA,-0.36704492448261616,2.3283320935706278,-0.4399821462838243,-0.39560874579260713,-0.902093023255814,0.8137718226068146,NA
1,5,1,no,external,constant,short,1.5,NA,1,left,1,1,7,0.6154370307922363,0,NA,NA,0.17,1,right,1,2,1,1,1,same,left,0,0,0,-0.21081637584142893,1.6248616023522757,1.3329081549933222,1.3736857168842092,-0.902093023255814,0.8137718226068146,-0.8968347010550997
1,5,2,no,external,constant,short,1.4,NA,1,left,1,1,7,0.7641828060150146,0,NA,NA,0.24,1,right,1,2,1,1,1,same,left,0,0,0,-0.11680273809069608,1.308587411452898,2.7511226484762785,2.4383938648841412,-0.902093023255814,0.8137718226068146,-0.8968347010550997
1,5,3,no,external,constant,short,1.5,NA,1,left,1,1,7,0.6658010482788086,0,NA,NA,0.27,1,right,1,2,1,1,1,same,left,0,0,0,-0.1766555253984207,1.5019501735317835,1.8131031685492287,1.76055869275727,-0.902093023255814,0.8137718226068146,-0.8968347010550997
1,5,4,no,external,constant,short,1.4,NA,1,left,1,1,7,0.4294519424438476,0,NA,NA,0.31,1,right,1,2,1,1,1,same,left,0,0,0,-0.3670854285712552,2.328549253519219,-0.4403640436445646,-0.3960674561907266,-0.902093023255814,0.8137718226068146,-0.8968347010550997
1,5,5,no,external,constant,short,1.4,NA,1,right,1,1,8,0.5129480361938477,0,NA,NA,0.49,1,right,1,2,1,1,1,different,left,0,0,0,-0.28992662852820017,1.9495152129251765,0.3557282832004141,0.4777589913461129,-0.902093023255814,0.8137718226068146,-0.8968347010550997
1,5,6,no,external,constant,short,1.4,NA,1,right,1,1,8,0.5352721214294434,0,NA,NA,0.3,1,right,1,2,1,1,1,same,right,0,0,0,-0.2714253753810897,1.8682086362530923,0.5685769586498689,0.687286411465375,-0.902093023255814,0.8137718226068146,-0.8968347010550997
1,5,7,no,external,constant,short,1.7,NA,1,left,1,1,7,0.4380581378936767,0,NA,NA,0.2,1,right,1,2,1,1,1,different,right,0,0,0,-0.35846824727934384,2.2828020152948625,-0.3583083946527564,-0.2984775388787663,-0.902093023255814,0.8137718226068146,-0.8968347010550997
1,5,8,no,external,constant,short,1.7,NA,1,right,1,1,8,0.6425600051879883,0,NA,NA,0.25,1,right,1,2,1,1,1,different,left,0,0,0,-0.1920863097006465,1.5562748878331427,1.5915117713771239,1.5858044531631195,-0.902093023255814,0.8137718226068146,-0.8968347010550997
1,5,9,no,external,constant,short,1.2,NA,1,left,1,1,7,0.5778939723968506,0,NA,NA,0.77,1,right,1,2,1,1,1,different,right,0,0,0,-0.2381518353284583,1.73042123255316,0.9749543948527823,1.064110562241974,-0.902093023255814,0.8137718226068146,-0.8968347010550997
1,5,10,no,external,constant,short,1.1,NA,1,left,1,1,7,0.4143521785736084,0,NA,NA,0.45,1,right,1,2,1,1,1,same,left,0,0,0,-0.38263037338837746,2.413405918227489,-0.584332529047733,-0.5721145681095542,-0.902093023255814,0.8137718226068146,-0.8968347010550997
1,5,11,no,external,constant,short,1.4,NA,1,right,1,1,8,0.5129289627075195,0,NA,NA,0.39,1,right,1,2,1,1,1,different,left,0,0,0,-0.2899427776569413,1.9495877064953657,0.35554642731434755,0.4775761018274731,-0.902093023255814,0.8137718226068146,-0.8968347010550997
1,5,12,no,external,constant,short,1.2,NA,1,left,1,1,7,0.7712280750274658,0,NA,NA,0.18,1,right,1,2,1,1,1,different,right,0,0,0,-0.11281716918876154,1.2966332948452206,2.818295666392115,2.483530589574616,-0.902093023255814,0.8137718226068146,-0.8968347010550997
1,5,13,no,external,constant,short,1.6,NA,1,left,1,1,7,0.3728978633880615,0,NA,NA,0.2,1,right,1,2,1,1,1,same,left,0,0,0,-0.4284101050308441,2.6816994629956774,-0.9795781118247971,-1.090571830897522,-0.902093023255814,0.8137718226068146,-0.8968347010550997
1,5,14,no,external,constant,short,1.2,NA,1,left,1,1,7,0.4815669059753418,0,NA,NA,0.25,1,right,1,2,1,1,1,same,left,0,0,0,-0.31734336611512753,2.076554654383173,0.056525340252252664,0.16726335902334374,-0.902093023255814,0.8137718226068146,-0.8968347010550997
1,5,15,no,external,constant,short,1.6,NA,1,right,1,1,8,0.5527238845825195,0,NA,NA,0.28,1,right,1,2,1,1,1,different,left,0,0,0,-0.2574917680611285,1.809221616603948,0.7349705480036207,0.8450850628049623,-0.902093023255814,0.8137718226068146,-0.8968347010550997
1,5,16,no,external,constant,short,1.1,NA,1,right,1,1,8,0.4455649852752685,0,NA,NA,0.53,1,right,1,2,1,1,1,same,right,0,0,0,-0.35108894552559755,2.2443415282783126,-0.2867344642941096,-0.21490665606072945,-0.902093023255814,0.8137718226068146,-0.8968347010550997
1,5,17,no,external,constant,short,1.7,NA,1,right,1,1,8,0.3683481216430664,0,NA,NA,0.21,1,right,1,2,1,1,1,same,right,0,0,0,-0.433741540447705,2.714823128564808,-1.0229575602473995,-1.15095054684422,-0.902093023255814,0.8137718226068146,-0.8968347010550997
1,5,18,no,external,constant,short,1.7,NA,1,left,1,1,7,0.4141659736633301,0,NA,NA,0.26,1,right,1,2,1,1,1,different,right,0,0,0,-0.38282558399705363,2.414490961570123,-0.5861078971354579,-0.5743253359365009,-0.902093023255814,0.8137718226068146,-0.8968347010550997
1,5,19,no,external,constant,short,1.2,NA,1,right,1,1,8,0.4022250175476074,0,NA,NA,0.26,1,right,1,2,1,1,1,different,left,0,0,0,-0.3955309206985505,2.4861705671543413,-0.6999587746074285,-0.7182137741759929,-0.902093023255814,0.8137718226068146,-0.8968347010550997
1,5,20,no,external,constant,short,1.7,NA,1,left,1,1,7,0.4302630424499511,0,NA,NA,0.68,1,right,1,2,1,1,1,different,right,0,0,0,-0.3662659561469594,2.324159645006744,-0.4326306220895841,-0.38678689873030425,-0.902093023255814,0.8137718226068146,-0.8968347010550997
1,5,21,no,external,constant,short,1.6,NA,1,right,1,1,8,0.3950610160827636,0,NA,NA,0.25,1,right,1,2,1,1,1,different,left,0,0,0,-0.4033358236099915,2.5312545639545063,-0.7682638454140294,-0.8066046068570187,-0.902093023255814,0.8137718226068146,-0.8968347010550997
1,5,22,no,external,constant,short,1.7,NA,1,right,1,1,8,0.3429548740386963,0,NA,NA,0.26,1,right,1,2,1,1,1,same,right,0,0,0,-0.46476302061401253,2.915835509855352,-1.2650691209635399,-1.502270030764822,-0.902093023255814,0.8137718226068146,-0.8968347010550997
1,5,23,no,external,constant,short,1.5,NA,1,right,1,1,8,0.5044639110565186,0,NA,NA,0.17,1,right,1,2,1,1,1,same,right,0,0,0,-0.29716989739460975,1.9823023571808354,0.27483651187943187,0.3957286863315577,-0.902093023255814,0.8137718226068146,-0.8968347010550997
1,5,24,no,external,constant,short,1.7,NA,1,left,1,1,7,0.5951480865478516,0,NA,NA,0.38,1,right,1,2,1,1,1,different,right,0,0,0,-0.22537495835781438,1.6802540789477902,1.1394635025871693,1.2088091968454544,-0.902093023255814,0.8137718226068146,-0.8968347010550997
1,5,25,no,external,constant,short,1.2,NA,1,right,1,1,8,0.362468957901001,0,NA,NA,0.38,1,right,1,2,1,1,1,different,left,0,0,0,-0.44072918078833745,2.758856939890351,-1.0790123639288411,-1.2300858487425488,-0.902093023255814,0.8137718226068146,-0.8968347010550997
1,5,26,no,external,constant,short,1.5,NA,1,right,1,1,8,0.3628208637237549,0,NA,NA,0.41,1,right,1,2,1,1,1,same,right,0,0,0,-0.4403077471368296,2.756181079932001,-1.075657122830913,-1.2253130960511627,-0.902093023255814,0.8137718226068146,-0.8968347010550997
1,5,27,no,external,constant,short,1.2,NA,1,right,1,1,8,0.3809950351715088,0,NA,NA,0.24,1,right,1,2,1,1,1,same,right,0,0,0,-0.41908068367258594,2.624706118676428,-0.9023757417923902,-0.9849157667996874,-0.902093023255814,0.8137718226068146,-0.8968347010550997
1,5,28,no,external,constant,short,1.5,NA,1,left,1,1,7,0.4456000328063965,0,NA,NA,0.28,1,right,1,2,1,1,1,different,right,0,0,0,-0.35105478586027805,2.244165005334455,-0.28640030410346173,-0.21451979650642677,-0.902093023255814,0.8137718226068146,-0.8968347010550997
1,5,29,no,external,constant,short,1.2,NA,1,right,1,1,8,0.4040710926055908,0,NA,NA,0.34,1,right,1,2,1,1,1,different,left,0,0,0,-0.39354221803282285,2.474812027635168,-0.6823573980347611,-0.6956916382092575,-0.902093023255814,0.8137718226068146,-0.8968347010550997
1,5,30,no,external,constant,short,1.3,NA,1,left,1,1,7,0.4066159725189209,0,NA,NA,0.21,1,right,1,2,1,1,1,different,right,0,0,0,-0.39081556558832975,2.4593229670865115,-0.6580932764363303,-0.6648121919515457,-0.902093023255814,0.8137718226068146,-0.8968347010550997
1,5,31,no,external,constant,short,1.2,NA,1,right,1,1,8,0.3756968975067138,0,NA,NA,0.27,1,right,1,2,1,1,1,different,left,0,0,0,-0.42516239131212163,2.6617201436488567,-0.9528907605445298,-1.0537913451996586,-0.902093023255814,0.8137718226068146,-0.8968347010550997
1,5,32,no,external,constant,short,1.1,NA,1,left,1,1,7,0.3515820503234863,0,NA,NA,0.65,1,right,1,2,1,1,1,different,right,0,0,0,-0.45397330551081655,2.844286274227915,-1.182813430497059,-1.3800760825269118,-0.902093023255814,0.8137718226068146,-0.8968347010550997
1,5,33,no,external,constant,short,1.1,NA,1,right,1,1,8,0.4177031517028808,0,NA,NA,0.23,1,right,1,2,1,1,1,different,left,0,0,0,-0.3791322478327821,2.3940446604801218,-0.5523827230644146,-0.532498158502639,-0.902093023255814,0.8137718226068146,-0.8968347010550997
1,5,34,no,external,constant,short,1.4,NA,1,left,1,1,7,0.4814040660858154,0,NA,NA,0.69,1,right,1,2,1,1,1,different,right,0,0,0,-0.31749024586162244,2.077257070408166,0.054972745624958866,0.16559994011295193,-0.902093023255814,0.8137718226068146,-0.8968347010550997
1,5,35,no,external,constant,short,1.1,NA,1,left,1,1,7,0.589623212814331,0,NA,NA,0.39,1,right,1,2,1,1,1,same,left,0,0,0,-0.22942542711859784,1.6959983566910455,1.0867866719894141,1.162937478698991,-0.902093023255814,0.8137718226068146,-0.8968347010550997
1,5,36,no,external,constant,short,1.2,NA,1,right,1,1,8,0.4306309223175049,0,NA,NA,0.19,1,right,1,2,1,1,1,different,left,0,0,0,-0.36589478800606096,2.322174159297131,-0.4291230766870748,-0.38258340492507203,-0.902093023255814,0.8137718226068146,-0.8968347010550997
1,5,37,no,external,constant,short,1.7,NA,1,right,1,1,8,0.4487919807434082,0,NA,NA,0.67,1,right,1,2,1,1,1,same,right,0,0,0,-0.34795491189004596,2.228203806903,-0.2559667215702227,-0.17941360177934018,-0.902093023255814,0.8137718226068146,-0.8968347010550997
1,5,38,no,external,constant,short,1.5,NA,1,right,1,1,8,0.4116160869598388,0,NA,NA,0.32,1,right,1,2,1,1,1,same,right,0,0,0,-0.38550766029113404,2.429448293398624,-0.6104197559039818,-0.604699955536226,-0.902093023255814,0.8137718226068146,-0.8968347010550997
1,5,39,no,external,constant,short,1.7,NA,1,left,1,1,7,0.3874540328979492,0,NA,NA,0.21,1,right,1,2,1,1,1,different,right,0,0,0,-0.41177981430072114,2.580951326072242,-0.8407925191745251,-0.9022331337936371,-0.902093023255814,0.8137718226068146,-0.8968347010550997
1,5,40,no,external,constant,short,1,NA,1,left,1,1,7,0.4451718330383301,0,NA,NA,0.21,1,right,1,2,1,1,1,same,left,0,0,0,-0.351472322196748,2.2463236121093453,-0.29048296874565604,-0.21924841195160605,-0.902093023255814,0.8137718226068146,-0.8968347010550997
1,5,41,no,external,constant,short,1.2,NA,1,left,1,1,7,0.3787930011749267,0,NA,NA,0.54,1,right,1,2,1,1,1,same,left,0,0,0,-0.4215980539010486,2.6399642994940122,-0.9233710038387752,-1.0134250837232923,-0.902093023255814,0.8137718226068146,-0.8968347010550997
1,5,42,no,external,constant,short,1.3,NA,1,right,1,1,8,0.448944091796875,0,NA,NA,0.41,1,right,1,2,1,1,1,different,left,0,0,0,-0.347807739477552,2.2274488478009653,-0.2545164208788419,-0.17774686841498952,-0.902093023255814,0.8137718226068146,-0.8968347010550997
1,5,43,no,external,constant,short,1.6,NA,1,right,1,1,8,0.5399470329284668,0,NA,NA,0.36,1,right,1,2,1,1,1,same,right,0,0,0,-0.2676488409828238,1.8520335125769307,0.613149836324783,0.7300558121739901,-0.902093023255814,0.8137718226068146,-0.8968347010550997
1,5,44,no,external,constant,short,1.1,NA,1,right,1,1,8,0.4078409671783447,0,NA,NA,0.19,1,right,1,2,1,1,1,same,right,0,0,0,-0.3895091519618024,2.4519361233338537,-0.6464135821537054,-0.6500170062093479,-0.902093023255814,0.8137718226068146,-0.8968347010550997
1,5,45,no,external,constant,short,1.2,NA,1,left,1,1,7,0.5895638465881348,0,NA,NA,0.18,1,right,1,2,1,1,1,different,right,0,0,0,-0.22946915626956618,1.6961691355178925,1.086220645544032,1.1624422443430504,-0.902093023255814,0.8137718226068146,-0.8968347010550997
1,5,46,no,external,constant,short,1.2,NA,1,left,1,1,7,0.4096410274505615,0,NA,NA,0.52,1,right,1,2,1,1,1,same,left,0,0,0,-0.38759655324541376,2.4411617318304066,-0.6292509329061736,-0.6283567504644058,-0.902093023255814,0.8137718226068146,-0.8968347010550997
1,5,47,no,external,constant,short,1.4,NA,1,right,1,1,8,0.498511791229248,0,NA,NA,0.25,1,right,1,2,1,1,1,different,left,0,0,0,-0.30232456492457177,2.0059706060997367,0.21808610943378506,0.3373518736617548,-0.902093023255814,0.8137718226068146,-0.8968347010550997
1,5,48,no,external,constant,short,1.1,NA,1,left,1,1,7,0.335629940032959,0,NA,NA,0.21,1,right,1,2,1,1,1,different,right,0,0,0,-0.4741393046635856,2.979471974108745,-1.334908600808827,-1.6084568166863618,-0.902093023255814,0.8137718226068146,-0.8968347010550997
1,5,49,no,external,constant,short,1.6,NA,1,left,1,1,7,0.3412361145019531,0,NA,NA,0.21,1,right,1,2,1,1,1,same,left,0,0,0,-0.4669450117984323,2.930522173655439,-1.2814566094967128,-1.5269811668137792,-0.902093023255814,0.8137718226068146,-0.8968347010550997
1,5,50,no,external,constant,short,1.7,NA,1,left,1,1,7,0.3420841693878174,0,NA,NA,0.67,1,right,1,2,1,1,1,same,left,0,0,0,-0.4658670231741717,2.923257167350267,-1.2733708421624783,-1.514772903213294,-0.902093023255814,0.8137718226068146,-0.8968347010550997
1,5,51,no,external,constant,short,1.7,NA,1,right,1,1,8,0.4570848941802978,0,NA,NA,0.75,1,right,1,2,1,1,1,different,left,0,0,0,-0.3400031311117725,2.18777739700483,-0.17689805550705828,-0.08935937147517346,-0.902093023255814,0.8137718226068146,-0.8968347010550997
1,5,52,no,external,constant,short,1.2,NA,1,right,1,1,8,0.4127099514007568,0,NA,NA,0.27,1,right,1,2,1,1,1,same,right,0,0,0,-0.38435505914213663,2.4230091777674696,-0.5999903208380645,-0.591646702156271,-0.902093023255814,0.8137718226068146,-0.8968347010550997
1,5,53,no,external,constant,short,1.5,NA,1,right,1,1,8,0.4154181480407715,0,NA,NA,0.33,1,right,1,2,1,1,1,same,right,0,0,0,-0.3815145347103962,2.407213080883155,-0.5741690582151882,-0.5594776511608655,-0.902093023255814,0.8137718226068146,-0.8968347010550997
1,5,54,no,external,constant,short,1.5,NA,1,left,1,1,7,0.3687548637390136,0,NA,NA,0.3,1,right,1,2,1,1,1,different,right,0,0,0,-0.43326224279388964,2.7118286383003487,-1.0190794834770305,-1.1455224820491152,-0.902093023255814,0.8137718226068146,-0.8968347010550997
